time,seconds_elapsed,z,y,x
1670358941526095000,0.23709521484375,-0.05110454559326172,-0.008579470217227936,0.004120432771742344
1670358941536018400,0.247018310546875,-0.03952789306640625,0.005056802183389664,0.005820577964186668
1670358941545941800,0.256941650390625,-0.038112640380859375,0.017600081861019135,0.022668935358524323
1670358941555864800,0.26686474609375,-0.03054523468017578,0.011678090319037437,0.020638661459088326
1670358941565788200,0.2767880859375,-0.03483009338378906,0.006293300539255142,0.01900586672127247
1670358941575711200,0.286711181640625,-0.03901481628417969,-0.009791385382413864,0.00425700331106782
1670358941585634600,0.296634521484375,-0.020763397216796875,-0.01143915206193924,-0.0027798181399703026
1670358941595558000,0.306557861328125,-0.026203155517578125,-0.021919671446084976,0.00183955579996109
1670358941605481000,0.31648095703125,-0.017897605895996094,-0.009324084967374802,0.03099508211016655
1670358941615404300,0.326404296875,-0.007854461669921875,0.004801850765943527,0.03591501712799072
1670358941625327600,0.33632763671875,-0.009709358215332031,0.016029130667448044,0.03851717710494995
1670358941635251000,0.3462509765625,-0.02970409393310547,-0.0005689673125743866,0.0183396153151989
1670358941645174300,0.35617431640625,-0.010038375854492188,-0.002589758485555649,-0.014520018361508846
1670358941655097600,0.36609765625,-0.0050067901611328125,0.00014869868755340576,-0.029812784865498543
1670358941665021000,0.37602099609375,-0.011661529541015625,0.0072507597506046295,-0.01700644940137863
1670358941674944300,0.3859443359375,-0.02035808563232422,0.01177496463060379,0.006712414789944887
1670358941684867600,0.39586767578125,-0.021842002868652344,0.013939650729298592,0.027093879878520966
1670358941694791000,0.405791015625,-0.000270843505859375,-0.002484247088432312,0.035218581557273865
1670358941704714200,0.41571435546875,0.0020475387573242188,-0.013589024543762207,0.036173831671476364
1670358941714637600,0.425637451171875,-0.016503334045410156,-0.021904855966567993,0.02569611370563507
1670358941724561000,0.435560791015625,-0.027496337890625,-0.013873055577278137,0.010987205430865288
1670358941734484200,0.445484130859375,-0.03815650939941406,0.0030356571078300476,-0.014796476811170578
1670358941744407600,0.455407470703125,-0.020697593688964844,0.0053916387259960175,-0.0189015232026577
1670358941754331000,0.465330810546875,-0.013088226318359375,0.0031398944556713104,-0.025218596681952477
1670358941764254200,0.475254150390625,-0.024305343627929688,0.007928084582090378,-0.015209827572107315
1670358941774177500,0.485177490234375,-0.03521442413330078,-0.003794115036725998,0.006216936744749546
1670358941784100900,0.495100830078125,-0.024900436401367188,-0.02459462732076645,0.006093556061387062
1670358941794024200,0.505024169921875,-0.0032482147216796875,-0.03785062953829765,0.019952192902565002
1670358941803947500,0.514947509765625,0.0061626434326171875,-0.008824348449707031,0.02635752409696579
1670358941813870800,0.524870849609375,0.0013360977172851562,0.014868754893541336,0.02095135673880577
1670358941823794200,0.534794189453125,0.012973785400390625,0.03573264926671982,0.0064646899700164795
1670358941833717500,0.544717529296875,-0.00603485107421875,0.025633620098233223,-0.01466232817620039
1670358941843640800,0.554640869140625,-0.008223533630371094,0.013562124222517014,-0.023700667545199394
1670358941853564200,0.564564208984375,-0.008026123046875,-0.007465381175279617,-0.011389650404453278
1670358941863487500,0.574487548828125,-0.035915374755859375,-0.023533236235380173,-0.004050940275192261
1670358941873410800,0.584410888671875,-0.044463157653808594,-0.027645856142044067,0.014721578918397427
1670358941883334100,0.594334228515625,-0.02239513397216797,-0.031681377440690994,0.02381797321140766
1670358941893257500,0.604257568359375,0.008556365966796875,-0.021584417670965195,0.013878688216209412
1670358941903180800,0.614180908203125,0.02244091033935547,-0.004678957164287567,0.006501942407339811
1670358941913104100,0.624104248046875,0.01024627685546875,0.02370261773467064,-0.010100471787154675
1670358941923027500,0.63402734375,0.024117469787597656,0.04692470654845238,-0.021572647616267204
1670358941932950800,0.64395068359375,0.02833271026611328,0.04398132115602493,-0.016391374170780182
1670358941942874000,0.6538740234375,0.006642341613769531,0.010685376822948456,0.0005270063411444426
1670358941952794000,0.663794189453125,-0.028723716735839844,-0.019514162093400955,0.010071946308016777
1670358941962714000,0.673714111328125,-0.044631004333496094,-0.049356646835803986,0.01473993994295597
1670358941972634600,0.683634521484375,-0.05556011199951172,-0.06946517527103424,0.012170583941042423
1670358941982555600,0.6935556640625,-0.031029701232910156,-0.047000106424093246,0.014355950057506561
1670358941992477200,0.703477294921875,0.00010967254638671875,-0.015540935099124908,0.018859729170799255
1670358942002399200,0.713399169921875,0.02599620819091797,0.029584959149360657,0.01377381943166256
1670358942012322000,0.723322021484375,0.023194313049316406,0.0599198080599308,-0.005345228128135204
1670358942022245400,0.733245361328125,0.034577369689941406,0.05453816056251526,-0.021683964878320694
1670358942032169500,0.74316943359375,0.019870758056640625,0.035231612622737885,-0.035401053726673126
1670358942042094000,0.753093994140625,-0.022857666015625,-0.009664174169301987,-0.02769007720053196
1670358942052019200,0.763019287109375,-0.043674468994140625,-0.04920363798737526,-0.01304041501134634
1670358942061944800,0.77294482421875,-0.06414604187011719,-0.04107605293393135,0.012936805374920368
1670358942071870700,0.78287060546875,-0.03716564178466797,-0.05684550106525421,0.033872976899147034
1670358942081796600,0.792796630859375,-0.015345573425292969,-0.04408549889922142,0.035615768283605576
1670358942091722800,0.80272265625,0.0013990402221679688,-0.010441180318593979,0.025551743805408478
1670358942101648100,0.812648193359375,0.0060863494873046875,0.027353500947356224,0.0038776788860559464
1670358942111571500,0.822571533203125,0.0036287307739257812,0.0385042205452919,-0.03146548196673393
1670358942121494800,0.832494873046875,-0.003498077392578125,0.03308319300413132,-0.05464776232838631
1670358942131418000,0.842418212890625,-0.010506629943847656,0.00890813022851944,-0.06085238233208656
1670358942141341400,0.852341552734375,-0.03859901428222656,-0.010255862027406693,-0.038686931133270264
1670358942151264800,0.8622646484375,-0.019112586975097656,-0.029203440994024277,0.0017481599934399128
1670358942161188000,0.87218798828125,0.00004863739013671875,-0.043124113231897354,0.0392567478120327
1670358942171111400,0.882111328125,0.004755973815917969,-0.03796835243701935,0.062006860971450806
1670358942181034500,0.892034423828125,0.004675865173339844,-0.004528924822807312,0.05846671387553215
1670358942190957800,0.901957763671875,0.01873016357421875,0.018827982246875763,0.0385996513068676
1670358942200881200,0.911881103515625,0.02077198028564453,0.013631917536258698,-0.011661456897854805
1670358942210804500,0.921804443359375,-0.0031290054321289062,0.018047627061605453,-0.0397813580930233
1670358942220727800,0.931727783203125,-0.0007219314575195312,0.026997894048690796,-0.060366496443748474
1670358942230651100,0.941651123046875,0.01813507080078125,0.012346431612968445,-0.05234189331531525
1670358942240574200,0.95157421875,-0.015145301818847656,-0.0044163912534713745,-0.018642911687493324
1670358942250497500,0.96149755859375,0.011017799377441406,-0.016188718378543854,0.033441826701164246
1670358942260420900,0.9714208984375,0.01790142059326172,-0.008920442312955856,0.05639238655567169
1670358942270344200,0.98134423828125,0.01053619384765625,-0.01109253615140915,0.060115449130535126
1670358942280267500,0.991267578125,-0.003772735595703125,-0.03453139215707779,0.03325723856687546
1670358942290190600,1.001190673828125,-0.001354217529296875,-0.017432227730751038,-0.004931112751364708
1670358942300114000,1.011114013671875,-0.02253246307373047,0.013412311673164368,-0.030705226585268974
1670358942310037200,1.021037353515625,-0.029224395751953125,0.010662045329809189,-0.0443749725818634
1670358942319960600,1.030960693359375,-0.0028276443481445312,0.0056020841002464294,-0.05781688168644905
1670358942329884000,1.0408837890625,-0.012204170227050781,0.007590163499116898,-0.028840722516179085
1670358942339807200,1.05080712890625,0.020974159240722656,0.014256224036216736,-0.009666739031672478
1670358942349730300,1.060730224609375,0.027690887451171875,-0.002641424536705017,0.03049117885529995
1670358942359653600,1.070653564453125,0.02016162872314453,-0.007479660212993622,0.053490374237298965
1670358942369577000,1.080576904296875,0.008048057556152344,-0.002712089568376541,0.045484043657779694
1670358942379500300,1.090500244140625,0.0008478164672851562,-0.0002765581011772156,0.030543949455022812
1670358942389423600,1.100423583984375,0.0008335113525390625,-0.0025927387177944183,-0.009954715147614479
1670358942399346700,1.1103466796875,-0.025092124938964844,-0.016751058399677277,-0.03339250385761261
1670358942409270000,1.12027001953125,-0.0246734619140625,-0.004762306809425354,-0.03995078429579735
1670358942419193300,1.130193359375,-0.00777435302734375,0.009279225021600723,-0.032369405031204224
1670358942429116700,1.14011669921875,0.02297687530517578,0.0065978653728961945,-0.010678088292479515
1670358942439040000,1.1500400390625,0.015527725219726562,-0.0006469450891017914,0.001229495625011623
1670358942448963300,1.15996337890625,0.00820159912109375,0.001754164695739746,0.0270724818110466
1670358942458886700,1.16988671875,0.012776374816894531,0.00401228666305542,0.03128422796726227
1670358942468810000,1.17981005859375,-0.0015697479248046875,-0.01025611162185669,0.01658134162425995
1670358942478733300,1.1897333984375,-0.006255149841308594,-0.0241837278008461,-0.00023204728495329618
1670358942488656600,1.19965673828125,-0.022640228271484375,-0.01667923480272293,-0.012054111808538437
1670358942498580000,1.209580078125,-0.015195846557617188,0.0023749805986881256,-0.016612479463219643
1670358942508503300,1.21950341796875,-0.012586593627929688,-0.00008835271000862122,-0.011672657914459705
1670358942518426600,1.229426513671875,0.004111289978027344,-0.009577292948961258,-0.0068151638843119144
1670358942528350000,1.239349853515625,0.008753776550292969,0.014069672673940659,0.004925061017274857
1670358942538273300,1.249273193359375,0.008607864379882812,0.020833641290664673,0.00008371166768483818
1670358942548196600,1.259196533203125,0.01317596435546875,0.008743420243263245,0.007100824266672134
1670358942558120000,1.269119873046875,-0.010600090026855469,0.0038183853030204773,-0.004843445494771004
1670358942568043300,1.279043212890625,0.0037097930908203125,-0.008091222494840622,-0.007165888790041208
1670358942577966600,1.288966552734375,-0.017551422119140625,-0.019699368625879288,-0.009347188286483288
1670358942587890000,1.298889892578125,-0.021970748901367188,-0.026402927935123444,0.0025382123421877623
1670358942597813200,1.308813232421875,-0.014538764953613281,-0.02142293006181717,0.00009219728963216767
1670358942607736600,1.318736572265625,-0.00487518310546875,0.004674047231674194,0.009464717470109463
1670358942617660000,1.328659912109375,0.021116256713867188,0.006780542433261871,0.004548255354166031
1670358942627583200,1.338583251953125,0.006630897521972656,0.0065993331372737885,-0.0026423647068440914
1670358942637506600,1.348506591796875,0.006520271301269531,0.011132251471281052,-0.000290924304863438
1670358942647430000,1.358429931640625,0.004055976867675781,0.01323406770825386,-0.007400349248200655
1670358942657353200,1.368353271484375,0.006343841552734375,0.0035230815410614014,-0.012036265805363655
1670358942667276500,1.378276611328125,-0.0031833648681640625,-0.008381601423025131,-0.009528253227472305
1670358942677200000,1.388199951171875,-0.01961994171142578,-0.010768633335828781,-0.009417596273124218
1670358942687123200,1.398123291015625,-0.014581680297851562,-0.01536845788359642,-0.006953227799385786
1670358942697046500,1.408046630859375,0.0068607330322265625,-0.012824960052967072,0.0025367282796651125
1670358942706969900,1.417969970703125,-0.049790382385253906,-0.006333518773317337,0.009706215932965279
1670358942716893200,1.42789306640625,0.0028619766235351562,-0.006193190813064575,0.0028420102316886187
1670358942726816500,1.43781640625,0.0310821533203125,0.00818106159567833,-0.00585204316303134
1670358942736739800,1.44773974609375,0.011720657348632812,0.00347132608294487,-0.007643385324627161
1670358942746663200,1.4576630859375,-0.012030601501464844,0.007953416556119919,-0.009919692762196064
1670358942756586500,1.46758642578125,-0.00005340576171875,-0.0017725154757499695,0.0019752669613808393
1670358942766509800,1.477509765625,-0.0024080276489257812,-0.018300049006938934,0.004146798513829708
1670358942776433200,1.48743310546875,-0.023568153381347656,-0.015707693994045258,0.0037206546403467655
1670358942786356500,1.4973564453125,0.016869544982910156,-0.015514101833105087,0.010574206709861755
1670358942796279800,1.50727978515625,0.03778648376464844,0.0010621733963489532,0.02725055254995823
1670358942806203400,1.517203369140625,-0.007598876953125,0.00097627192735672,0.012718412093818188
1670358942816126700,1.527126708984375,0.0043048858642578125,0.012669555842876434,0.0006805261364206672
1670358942826050000,1.537050048828125,-0.00047779083251953125,0.01945684105157852,-0.027645602822303772
1670358942835973400,1.546973388671875,0.020730018615722656,-0.002135634422302246,-0.03901074826717377
1670358942845896700,1.556896728515625,0.006251335144042969,0.0002902783453464508,-0.0313420444726944
1670358942855820000,1.566820068359375,0.010858535766601562,0.005031321197748184,-0.0003485880442894995
1670358942865743400,1.576743408203125,0.013032913208007812,0.00016815215349197388,0.042009055614471436
1670358942875666700,1.586666748046875,0.01752758026123047,-0.016288749873638153,0.0437198206782341
1670358942885590000,1.596590087890625,0.024301528930664062,-0.020693626254796982,0.02891267091035843
1670358942895513300,1.606513427734375,-0.009081840515136719,-0.017958424985408783,0.014249317348003387
1670358942905436700,1.616436767578125,-0.02541828155517578,-0.010454729199409485,-0.02372518740594387
1670358942915360000,1.626360107421875,-0.02263927459716797,0.0015320368111133575,-0.04693346098065376
1670358942925283300,1.636283447265625,0.0036487579345703125,0.008504949510097504,-0.06268826872110367
1670358942935206700,1.64620654296875,0.008299827575683594,0.020175743848085403,-0.03813553601503372
1670358942945130000,1.6561298828125,0.02465057373046875,0.02694091945886612,0.00485187815502286
1670358942955053300,1.66605322265625,0.012462615966796875,0.007682252675294876,0.03544805198907852
1670358942964976600,1.6759765625,0.005188941955566406,-0.013508014380931854,0.05375652015209198
1670358942974900000,1.68589990234375,-0.011385917663574219,-0.03198955953121185,0.038782086223363876
1670358942984823300,1.6958232421875,-0.015905380249023438,-0.040740881115198135,0.014635004103183746
1670358942994746600,1.70574658203125,-0.015639305114746094,-0.02814636006951332,-0.025598514825105667
1670358943004670000,1.715669921875,-0.01302337646484375,0.0005211718380451202,-0.04877558350563049
1670358943014593300,1.72559326171875,-0.0033845901489257812,0.02881389483809471,-0.0456552691757679
1670358943024516600,1.7355166015625,0.015516281127929688,0.0472128689289093,-0.037772875279188156
1670358943034440000,1.74543994140625,0.02703571319580078,0.03232743963599205,-0.011176872067153454
1670358943044363300,1.75536328125,0.007740974426269531,0.008370868861675262,0.01487288624048233
1670358943054286600,1.76528662109375,0.0005464553833007812,-0.01754196733236313,0.03833835572004318
1670358943064210000,1.7752099609375,-0.00417327880859375,-0.03831182420253754,0.04963495954871178
1670358943074133200,1.78513330078125,-0.015880584716796875,-0.030468881130218506,0.02766253985464573
1670358943084056600,1.795056640625,-0.020326614379882812,-0.022756662219762802,0.0013452117564156651
1670358943093980000,1.80497998046875,-0.019988059997558594,0.005924023687839508,-0.03631127253174782
1670358943103903200,1.8149033203125,-0.0055217742919921875,0.015282277017831802,-0.05449571833014488
1670358943113826600,1.82482666015625,-0.0030736923217773438,0.02448456548154354,-0.060702286660671234
1670358943123750000,1.83475,-0.0030221939086914062,0.01940017193555832,-0.02921951934695244
1670358943133673200,1.844673095703125,0.001739501953125,-0.013969093561172485,-0.002869595540687442
1670358943143596500,1.854596435546875,0.013487815856933594,-0.01841259002685547,0.025499684736132622
1670358943153519900,1.864519775390625,0.0014858245849609375,-0.02984868735074997,0.04161836951971054
1670358943163443200,1.874443115234375,-0.01267242431640625,-0.022249754518270493,0.029201196506619453
1670358943173366500,1.884366455078125,0.02758312225341797,-0.012421928346157074,0.028769301250576973
1670358943183289900,1.894289794921875,-0.005854606628417969,0.011375416070222855,0.02127794176340103
1670358943193213200,1.904213134765625,-0.02460193634033203,-0.0006601475179195404,-0.014355205930769444
1670358943203136500,1.914136474609375,0.006430625915527344,-0.014850664883852005,-0.023483378812670708
1670358943213059800,1.924059814453125,-0.0407867431640625,-0.009960241615772247,-0.020784614607691765
1670358943222983200,1.933983154296875,-0.01655292510986328,-0.01938759908080101,-0.022841937839984894
1670358943232906500,1.943906494140625,-0.028055191040039062,-0.023946724832057953,-0.020256824791431427
1670358943242829800,1.953829833984375,0.028944969177246094,-0.021363187581300735,-0.005937023088335991
1670358943252753200,1.963753173828125,0.0025510787963867188,0.01415502279996872,0.012855787761509418
1670358943262676500,1.973676513671875,-0.02104949951171875,0.006578333675861359,0.007882237434387207
1670358943272599800,1.983599853515625,0.005209922790527344,-0.007938727736473083,0.012310843914747238
1670358943282523400,1.9935234375,0.014544486999511719,-0.00808052346110344,-0.013956560753285885
1670358943292446700,2.00344677734375,0.04021263122558594,-0.0009473785758018494,-0.006808423437178135
1670358943302370000,2.0133701171875,-0.019347190856933594,0.008319463580846786,0.002679091412574053
1670358943312293400,2.02329345703125,-0.019025802612304688,0.012720759958028793,0.00012775110371876508
1670358943322216700,2.033216796875,-0.009288787841796875,-0.013779424130916595,-0.007092164363712072
1670358943332140000,2.04314013671875,0.0026426315307617188,-0.02795720472931862,-0.009480636566877365
1670358943342063400,2.0530634765625,-0.009181976318359375,-0.015987597405910492,-0.002407088177278638
1670358943351986700,2.062986572265625,-0.023163795471191406,-0.0043204352259635925,-0.00026549631729722023
1670358943361910000,2.072909912109375,-0.00157928466796875,0.004796728491783142,0.011365586891770363
1670358943371833300,2.082833251953125,0.03142356872558594,0.020828600972890854,0.0016028385143727064
1670358943381756700,2.092756591796875,0.0379638671875,0.031985096633434296,0.00859410222619772
1670358943391680000,2.102679931640625,0.023197174072265625,0.012436393648386002,0.0014385012909770012
1670358943401603300,2.112603271484375,-0.010167121887207031,-0.011394627392292023,0.0012634160229936242
1670358943411526700,2.122526611328125,-0.021776199340820312,-0.025509215891361237,-0.0012643032241612673
1670358943421450000,2.132449951171875,0.0021429061889648438,-0.029863376170396805,-0.008358033373951912
1670358943431373300,2.142373291015625,0.0044612884521484375,-0.013047955930233002,0.008221998810768127
1670358943441296600,2.152296630859375,0.01852130889892578,0.010656844824552536,0.01745903491973877
1670358943451220000,2.162219970703125,0.0017232894897460938,0.041033193469047546,0.014763818122446537
1670358943461143300,2.172143310546875,0.01582813262939453,0.030858874320983887,-0.0020192593801766634
1670358943471066600,2.182066650390625,0.03205299377441406,-0.009665101766586304,-0.00674484483897686
1670358943480990000,2.191989990234375,-0.015592575073242188,-0.04244700074195862,0.0074532777070999146
1670358943490913300,2.201913330078125,-0.02239990234375,-0.044163331389427185,0.019161660224199295
1670358943500836600,2.211836669921875,-0.029092788696289062,-0.03407328203320503,0.0024082434829324484
1670358943510760000,2.221760009765625,0.013792037963867188,-0.01001807302236557,-0.011813369579613209
1670358943520683300,2.231683349609375,0.02298450469970703,0.027769532054662704,-0.02815351076424122
1670358943530606600,2.241606689453125,0.024956703186035156,0.06021624058485031,-0.03479909896850586
1670358943540530000,2.251530029296875,0.010408401489257812,0.049928151071071625,-0.02474259026348591
1670358943550453200,2.261453369140625,0.014946937561035156,0.009189348667860031,-0.0007198281236924231
1670358943560376600,2.27137646484375,0.0005655288696289062,-0.02851492166519165,0.025258108973503113
1670358943570300000,2.2812998046875,-0.032421112060546875,-0.04910190775990486,0.034314196556806564
1670358943580223200,2.29122314453125,-0.04130268096923828,-0.06238212436437607,0.026626944541931152
1670358943590146600,2.301146484375,-0.019415855407714844,-0.042669184505939484,0.004935018718242645
1670358943600070000,2.31106982421875,-0.004960060119628906,0.002626311033964157,-0.032884255051612854
1670358943609993200,2.3209931640625,0.0021886825561523438,0.04010022431612015,-0.046517666429281235
1670358943619916500,2.33091650390625,0.02099609375,0.04643034189939499,-0.05050163343548775
1670358943629840000,2.34083984375,0.027711868286132812,0.028996454551815987,-0.026152541860938072
1670358943639763200,2.35076318359375,0.022538185119628906,0.0026368647813796997,0.01417663786560297
1670358943649686500,2.3606865234375,0.0033178329467773438,-0.016216740012168884,0.039803311228752136
1670358943659609900,2.37060986328125,-0.02264690399169922,-0.03229759633541107,0.05086955055594444
1670358943669533200,2.380533203125,-0.0034246444702148438,-0.041146766394376755,0.04772099480032921
1670358943679456500,2.39045654296875,-0.02221202850341797,-0.014515172690153122,0.011646609753370285
1670358943689379800,2.4003798828125,-0.07130908966064453,-0.002563711255788803,-0.030171867460012436
1670358943699303200,2.41030322265625,0.01938915252685547,0.008982684463262558,-0.06075063720345497
1670358943709226500,2.4202265625,0.0002193450927734375,0.010914403945207596,-0.05988923832774162
1670358943719149800,2.43014990234375,-0.009207725524902344,0.010561339557170868,-0.042656272649765015
1670358943729073200,2.4400732421875,0.014501571655273438,0.012672681361436844,-0.0019490572158247232
1670358943738996500,2.44999658203125,0.047237396240234375,0.010140690952539444,0.028657490387558937
1670358943748919800,2.459919921875,0.034671783447265625,0.0005842335522174835,0.05168726295232773
1670358943758843400,2.469843505859375,0.005827903747558594,0.0007122457027435303,0.053133752197027206
1670358943768766700,2.4797666015625,-0.008401870727539062,-0.00151742622256279,0.031000586226582527
1670358943778690000,2.48968994140625,-0.010617256164550781,-0.03207959234714508,-0.019030867144465446
1670358943788613400,2.49961328125,-0.022217750549316406,-0.03386573866009712,-0.04702848568558693
1670358943798536700,2.50953662109375,-0.04775810241699219,-0.014525070786476135,-0.05346192046999931
1670358943808460000,2.5194599609375,-0.016341209411621094,0.009101387113332748,-0.05036645010113716
1670358943818383400,2.52938330078125,0.01926422119140625,0.018200766295194626,-0.019055915996432304
1670358943828306700,2.539306640625,0.023653030395507812,0.02243736945092678,0.014088328927755356
1670358943838230000,2.54922998046875,0.009124755859375,0.012470029294490814,0.030294260010123253
1670358943848153300,2.5591533203125,0.004261016845703125,-0.009005986154079437,0.027386192232370377
1670358943858076700,2.56907666015625,0.008901596069335938,-0.03002111241221428,0.01274829264730215
1670358943868000000,2.579,0.008752822875976562,-0.031944531947374344,0.0076735964976251125
1670358943877923300,2.58892333984375,-0.007882118225097656,-0.0007551684975624084,-0.018413541838526726
1670358943887846700,2.5988466796875,-0.014818191528320312,0.017930660396814346,-0.0205103550106287
1670358943897770000,2.60877001953125,-0.0027933120727539062,0.022274712100625038,-0.024927768856287003
1670358943907693300,2.618693359375,0.009031295776367188,0.01241304725408554,-0.02456044591963291
1670358943917616600,2.62861669921875,-0.0005407333374023438,0.002715740352869034,-0.007710364647209644
1670358943927540000,2.6385400390625,-0.0005321502685546875,-0.01142808049917221,0.008858881890773773
1670358943937463300,2.64846337890625,-0.0005235671997070312,-0.02543913945555687,0.02044086530804634
1670358943947386600,2.65838671875,0.0018405914306640625,-0.02508336305618286,0.010526856407523155
1670358943957310000,2.66831005859375,-0.009968757629394531,-0.017666857689619064,0.01736992411315441
1670358943967233300,2.6782333984375,-0.01686859130859375,-0.0033073052763938904,-0.011337338015437126
1670358943977156600,2.688156494140625,-0.0024547576904296875,-0.0010678060352802277,-0.03249947726726532
1670358943987080000,2.698079833984375,0.00229644775390625,0.005845479667186737,-0.034361518919467926
1670358943997003300,2.708003173828125,0.014036178588867188,0.019813165068626404,-0.005570855922996998
1670358944006926600,2.717926513671875,0.016158103942871094,0.01470363512635231,0.010962730273604393
1670358944016850000,2.727849853515625,0.008821487426757812,0.002612583339214325,0.03428689390420914
1670358944026773200,2.737773193359375,-0.012524604797363281,-0.016343604773283005,0.026703618466854095
1670358944036696600,2.747696533203125,-0.009961128234863281,-0.03959202393889427,0.01207657065242529
1670358944046620000,2.757619873046875,-0.0003719329833984375,-0.029578160494565964,-0.021150603890419006
1670358944056543200,2.767543212890625,-0.0027217864990234375,-0.007953424006700516,-0.03969067335128784
1670358944066466600,2.777466552734375,-0.0026769638061523438,0.01791904866695404,-0.0272995438426733
1670358944076390000,2.787389892578125,0.009143829345703125,0.0315825454890728,-0.022181587293744087
1670358944086313200,2.797313232421875,0.030191421508789062,0.03569907322525978,-0.010082261636853218
1670358944096236500,2.807236572265625,0.02262115478515625,-0.000194452702999115,0.015948737040162086
1670358944106159900,2.817159912109375,-0.027220726013183594,-0.011831246316432953,0.025159459561109543
1670358944116083200,2.827083251953125,-0.02676677703857422,-0.028088178485631943,-0.0012190936831757426
1670358944126006500,2.837006591796875,-0.0051212310791015625,-0.030043814331293106,-0.008314106613397598
1670358944135929900,2.846929931640625,-0.023880958557128906,-0.013122431933879852,-0.003513107541948557
1670358944145853200,2.856853271484375,-0.0022821426391601562,0.005872506648302078,-0.005858253221958876
1670358944155776500,2.866776611328125,0.014245033264160156,0.022195303812623024,-0.0034532034769654274
1670358944165699800,2.876699951171875,0.0328521728515625,0.019504588097333908,-0.0034437882713973522
1670358944175623200,2.886623046875,0.0040378570556640625,0.009895030409097672,-0.005687113385647535
1670358944185546500,2.89654638671875,-0.005450248718261719,0.002801179885864258,-0.000826387433335185
1670358944195469800,2.9064697265625,-0.017136573791503906,-0.01369963213801384,-0.007927942089736462
1670358944205393200,2.91639306640625,-0.016851425170898438,-0.020503200590610504,-0.01009653601795435
1670358944215316500,2.92631640625,-0.014214515686035156,-0.02258523553609848,-0.005162863992154598
1670358944225239800,2.93623974609375,-0.03517913818359375,-0.01531330868601799,-0.00041385277290828526
1670358944235163400,2.946163330078125,-0.01810455322265625,-0.022295895963907242,0.0042560105212032795
1670358944245086700,2.956086669921875,0.015173912048339844,-0.033873215317726135,0.008848042227327824
1670358944255010000,2.966010009765625,0.03141021728515625,-0.012176871299743652,0.013363533653318882
1670358944264933400,2.975933349609375,0.009686470031738281,0.018580079078674316,0.022411910817027092
1670358944274856700,2.985856689453125,0.004813194274902344,0.018202196806669235,0.01492356602102518
1670358944284780000,2.995780029296875,0.004733085632324219,0.010763972997665405,-0.006572753190994263
1670358944294703400,3.005703369140625,0.014077186584472656,0.008263789117336273,-0.020644139498472214
1670358944304626700,3.015626708984375,-0.026201248168945312,-0.008328057825565338,-0.017992660403251648
1670358944314550000,3.025550048828125,-0.037543296813964844,-0.034168556332588196,-0.022452034056186676
1670358944324473300,3.035473388671875,-0.02278614044189453,-0.033873189240694046,-0.005637100897729397
1670358944334396700,3.045396728515625,-0.010629653930664062,-0.01944941282272339,0.010794631205499172
1670358944344320000,3.055320068359375,-0.005743980407714844,-0.009977135807275772,0.019988790154457092
1670358944354243300,3.065243408203125,-0.0032939910888671875,-0.0007656775414943695,0.007726782001554966
1670358944364166700,3.075166748046875,0.041515350341796875,0.017920363694429398,-0.016005676239728928
1670358944374090000,3.085090087890625,0.04317951202392578,0.0340423658490181,-0.015890009701251984
1670358944384013300,3.095013427734375,0.0071258544921875,0.028798634186387062,-0.015673313289880753
1670358944393936600,3.1049365234375,-0.0071258544921875,0.002442318946123123,-0.013001704588532448
1670358944403860000,3.11485986328125,-0.014073371887207031,-0.01179991289973259,-0.0010553699685260653
1670358944413783300,3.124783203125,-0.0138397216796875,-0.03297439590096474,0.008233344182372093
1670358944423706600,3.13470654296875,-0.020676612854003906,-0.04191524535417557,0.015114650130271912
1670358944433630000,3.1446298828125,-0.015621185302734375,-0.0296100452542305,0.019525708630681038
1670358944443553300,3.15455322265625,0.008193016052246094,0.005942672491073608,0.002560847671702504
1670358944453476600,3.1644765625,0.019834518432617188,0.03158355504274368,-0.004596631973981857
1670358944463400000,3.17439990234375,0.02657032012939453,0.04041116684675217,-0.023309627547860146
1670358944473323300,3.1843232421875,0.014349937438964844,0.02553611248731613,-0.022969260811805725
1670358944483246600,3.19424658203125,-0.009446144104003906,-0.005682859569787979,-0.024990113452076912
1670358944493170000,3.204169921875,-0.009288787841796875,-0.019789669662714005,-0.01048840768635273
1670358944503093200,3.21409326171875,-0.020911216735839844,-0.050150252878665924,-0.0032955766655504704
1670358944513016600,3.2240166015625,-0.01349639892578125,-0.049485571682453156,0.008488990366458893
1670358944522940000,3.23393994140625,-0.01562786102294922,-0.02527642250061035,0.015263080596923828
1670358944532863200,3.24386328125,0.015254020690917969,0.015018109232187271,0.017213162034749985
1670358944542786600,3.25378662109375,0.02677631378173828,0.02401886135339737,0.005100374110043049
1670358944552710000,3.2637099609375,0.028685569763183594,0.023550335317850113,-0.006810530088841915
1670358944562633200,3.27363330078125,0.023496627807617188,0.01858443021774292,-0.013914774172008038
1670358944572556500,3.283556640625,-0.005161285400390625,0.004176117479801178,-0.01608654111623764
1670358944582480000,3.29347998046875,-0.016852378845214844,-0.021769829094409943,-0.013408036902546883
1670358944592403200,3.3034033203125,-0.02363872528076172,-0.03325297310948372,-0.0014549281913787127
1670358944602326500,3.313326416015625,-0.016178131103515625,-0.02580326423048973,0.003232297021895647
1670358944612249900,3.323249755859375,0.005290031433105469,-0.009055495262145996,0.010196954943239689
1670358944622173200,3.333173095703125,0.007556915283203125,0.0027020275592803955,0.014689980074763298
1670358944632096500,3.343096435546875,0.0215606689453125,0.011496208608150482,0.009183629415929317
1670358944642019800,3.353019775390625,9.5367431640625e-7,0.018097147345542908,-0.0020745794754475355
1670358944651943200,3.362943115234375,-0.0023555755615234375,0.010454744100570679,-0.02266981452703476
1670358944661866500,3.372866455078125,-0.0023164749145507812,-0.008632112294435501,-0.027257131412625313
1670358944671789800,3.382789794921875,-0.016409873962402344,-0.0012838393449783325,-0.01599985361099243
1670358944681713200,3.392713134765625,-0.0067138671875,0.005941949784755707,0.002239957684651017
1670358944691636500,3.402636474609375,0.012242317199707031,-0.008255641907453537,0.0038923127576708794
1670358944701559800,3.412559814453125,0.0026159286499023438,-0.022319577634334564,0.0036763630341738462
1670358944711483400,3.4224833984375,-0.004494667053222656,-0.012593567371368408,0.0011084545403718948
1670358944721406700,3.43240673828125,0.00264739990234375,0.004037000238895416,-0.0037722098641097546
1670358944731330000,3.442330078125,0.009669303894042969,0.006257064640522003,0.003206240711733699
1670358944741253400,3.45225341796875,0.01186370849609375,0.015609748661518097,0.0006461668526753783
1670358944751176700,3.4621767578125,0.0022439956665039062,0.0011480487883090973,-0.004123828373849392
1670358944761100000,3.47210009765625,-0.011926651000976562,-0.0011918842792510986,-0.0041032154113054276
1670358944771023400,3.4820234375,-0.016439437866210938,-0.020084664225578308,-0.01586071401834488
1670358944780946700,3.49194677734375,-0.01852130889892578,-0.026884786784648895,-0.01800004206597805
1670358944790870000,3.5018701171875,-0.008791923522949219,-0.014830101281404495,-0.013140011578798294
1670358944800793300,3.51179345703125,0.005486488342285156,0.0017347745597362518,-0.008361496031284332
1670358944810716700,3.521716552734375,0.021883010864257812,0.010956920683383942,0.00811566412448883
1670358944820640000,3.531639892578125,0.01680755615234375,0.020128315314650536,0.012643394060432911
1670358944830563300,3.541563232421875,0.016527175903320312,0.012760933488607407,0.007673447951674461
1670358944840486700,3.551486572265625,0.006829261779785156,0.0008052289485931396,0.005244855303317308
1670358944850410000,3.561409912109375,0.00907135009765625,-0.008595656603574753,-0.004209922160953283
1670358944860333300,3.571333251953125,-0.0052127838134765625,-0.017942827194929123,-0.0041878740303218365
1670358944870256600,3.581256591796875,-0.014551162719726562,-0.020685356110334396,-0.01040911115705967
1670358944880180000,3.591179931640625,-0.030800819396972656,0.0002763606607913971,-0.01908816024661064
1670358944890103300,3.601103271484375,0.009755134582519531,-0.009527530521154404,-0.027930965647101402
1670358944900026600,3.611026611328125,0.04492759704589844,0.004902321845293045,-0.01123060006648302
1670358944909950000,3.620949951171875,0.006491661071777344,0.03107539750635624,0.009696573950350285
1670358944919873300,3.630873291015625,-0.021881103515625,0.03090115450322628,0.023208297789096832
1670358944929796600,3.640796630859375,0.013817787170410156,-0.01412869617342949,0.010686717927455902
1670358944939720000,3.650719970703125,0.015944480895996094,-0.046733248978853226,-0.0014202435268089175
1670358944949643300,3.660643310546875,-0.022009849548339844,-0.04346107691526413,-0.008614328689873219
1670358944959566600,3.670566650390625,-0.03577613830566406,-0.02631605789065361,-0.010874439030885696
1670358944969490000,3.680489990234375,-0.021047592163085938,-0.0001375339925289154,-0.017807988449931145
1670358944979413200,3.690413330078125,0.02170276641845703,0.0304187573492527,-0.020017826929688454
1670358944989336600,3.700336669921875,0.01898670196533203,0.03455468267202377,-0.007954549044370651
1670358944999260000,3.710260009765625,0.009247779846191406,0.024591319262981415,0.001552126370370388
1670358945009183200,3.720183349609375,-0.007395744323730469,-0.013575602322816849,0.008544806391000748
1670358945019106600,3.7301064453125,-0.0096282958984375,-0.027550868690013885,0.010709834285080433
1670358945029030000,3.74002978515625,-0.016533851623535156,-0.0318710021674633,0.0034165577962994576
1670358945038953200,3.749953125,0.0826711654663086,-0.03919542208313942,0.015603560954332352
1670358945048876500,3.75987646484375,-0.08595466613769531,-0.00410088524222374,-0.01962653547525406
1670358945058799900,3.7697998046875,0.02382946014404297,0.009620748460292816,-0.02160012722015381
1670358945068723200,3.77972314453125,0.05169868469238281,0.035406265407800674,-0.011968979611992836
1670358945078646500,3.789646484375,0.015505790710449219,0.051648736000061035,0.004568303003907204
1670358945088569900,3.79956982421875,-0.017728805541992188,0.027576085180044174,0.020932942628860474
1670358945098493200,3.8094931640625,-0.010365486145019531,-0.010228686034679413,0.013366814702749252
1670358945108416500,3.81941650390625,-0.005480766296386719,-0.056928567588329315,-0.0011398703791201115
1670358945118339800,3.82933984375,-0.02423381805419922,-0.0606561116874218,-0.0036275112070143223
1670358945128263200,3.83926318359375,-0.03089618682861328,-0.03851339593529701,-0.013140358030796051
1670358945138186500,3.8491865234375,0.016730308532714844,0.016238026320934296,-0.008361331187188625
1670358945148109800,3.85910986328125,0.021162033081054688,0.0465213842689991,-0.013084172271192074
1670358945158033200,3.869033203125,0.02552032470703125,0.05520300194621086,-0.01526977401226759
1670358945167956500,3.87895654296875,0.02274036407470703,0.02144293114542961,-0.012707834132015705
1670358945177879800,3.8888798828125,-0.020038604736328125,-0.011857438832521439,-0.0031219294760376215
1670358945187803400,3.898803466796875,-0.03854942321777344,-0.046958353370428085,0.003949154168367386
1670358945197726700,3.908726806640625,-0.023774147033691406,-0.060480207204818726,0.006190774030983448
1670358945207650000,3.918650146484375,-0.0163116455078125,-0.040798936039209366,0.008292065002024174
1670358945217573400,3.928573486328125,-0.0042629241943359375,0.006718002259731293,0.01988350786268711
1670358945227496700,3.93849658203125,0.026429176330566406,0.04176817834377289,-0.0016959914937615395
1670358945237420000,3.948419921875,0.04247760772705078,0.03864827752113342,-0.018204716965556145
1670358945247343400,3.95834326171875,0.013503074645996094,0.02390558272600174,-0.027371129021048546
1670358945257266700,3.9682666015625,-0.0032110214233398438,-0.009435832500457764,-0.015185282565653324
1670358945267190000,3.97818994140625,-0.019646644592285156,-0.032799337059259415,-0.010269196704030037
1670358945277113300,3.98811328125,-0.03816413879394531,-0.05352087691426277,0.003987165633589029
1670358945287036700,3.99803662109375,-0.021039962768554688,-0.041022248566150665,0.025072578340768814
1670358945296960000,4.0079599609375,0.005221366882324219,-0.021562322974205017,0.022251024842262268
1670358945306883300,4.01788330078125,0.031045913696289062,0.009351026266813278,0.012409307062625885
1670358945316806700,4.027806640625,0.01875019073486328,0.03964619338512421,0.005087696015834808
1670358945326730000,4.03772998046875,0.020792007446289062,0.02959796041250229,-0.016245204955339432
1670358945336653300,4.0476533203125,0.02280139923095703,0.01265053078532219,-0.02544478513300419
1670358945346576600,4.05757666015625,-0.001132965087890625,-0.003911450505256653,-0.03203250840306282
1670358945356500000,4.0675,-0.03173637390136719,-0.027367036789655685,-0.015057875774800777
1670358945366423300,4.07742333984375,-0.03120708465576172,-0.03875689208507538,-0.005535786971449852
1670358945376346600,4.0873466796875,-0.014199256896972656,-0.028859902173280716,0.013352782465517521
1670358945386270000,4.09727001953125,-0.013963699340820312,-0.005097493529319763,0.012979147024452686
1670358945396193300,4.107193359375,0.03808879852294922,0.006388150155544281,0.017425812780857086
1670358945406116600,4.11711669921875,-0.042636871337890625,0.00805419310927391,0.002850973280146718
1670358945416040000,4.1270400390625,0.04287242889404297,0.014712490141391754,-0.018444636836647987
1670358945425963300,4.13696337890625,0.04687023162841797,0.012249443680047989,-0.013371262699365616
1670358945435886600,4.146886474609375,0.015467643737792969,0.014641553163528442,-0.003568357089534402
1670358945445810000,4.156809814453125,-0.04603385925292969,0.007571578025817871,-0.0012014451203867793
1670358945455733200,4.166733154296875,-0.028778076171875,-0.02314206212759018,-0.0036880550906062126
1670358945465656600,4.176656494140625,-0.007099151611328125,-0.04638011008501053,-0.01074136234819889
1670358945475580000,4.186579833984375,0.00008487701416015625,-0.05284493789076805,-0.017780082300305367
1670358945485503200,4.196503173828125,-0.0022726058959960938,-0.014240581542253494,0.010631286539137363
1670358945495426600,4.206426513671875,0.018965721130371094,0.04246184974908829,0.019828181713819504
1670358945505350000,4.216349853515625,0.023360252380371094,0.03697481378912926,0.012279445305466652
1670358945515273200,4.226273193359375,0.030038833618164062,0.017651855945587158,-0.013884423300623894
1670358945525196500,4.236196533203125,0.005982398986816406,-0.0038075707852840424,-0.0254789050668478
1670358945535120000,4.246119873046875,-0.03651714324951172,-0.027264893054962158,-0.020391268655657768
1670358945545043200,4.256043212890625,-0.040618896484375,-0.04572312533855438,-0.010677322745323181
1670358945554966500,4.265966552734375,-0.023454666137695312,-0.028643351048231125,0.0012307956349104643
1670358945564889900,4.275889892578125,0.007557868957519531,-0.009492691606283188,0.010481411591172218
1670358945574813200,4.285813232421875,0.1723165512084961,-0.003056742250919342,0.039245959371328354
1670358945584736500,4.295736572265625,-0.1297149658203125,0.029182802885770798,-0.026793839409947395
1670358945594659800,4.305659912109375,0.07266807556152344,0.0002586059272289276,-0.028750939294695854
1670358945604583200,4.315583251953125,0.09972667694091797,0.024462487548589706,-0.02412417158484459
1670358945614506500,4.325506591796875,0.020334243774414062,0.05768529325723648,0.0064399815164506435
1670358945624429800,4.335429931640625,-0.06715869903564453,0.031053559854626656,0.032092612236738205
1670358945634353200,4.345353271484375,-0.02128314971923828,-0.03763731196522713,0.008057072758674622
1670358945644276500,4.3552763671875,0.012049674987792969,-0.08644188940525055,-0.008614211343228817
1670358945654199800,4.36519970703125,-0.035262107849121094,-0.0731886774301529,-0.010874856263399124
1670358945664123400,4.375123291015625,-0.05587482452392578,-0.020214904099702835,-0.0014225245686247945
1670358945674046700,4.385046630859375,0.0062999725341796875,0.0388396754860878,-0.0062610432505607605
1670358945683970000,4.394969970703125,0.05330657958984375,0.06639079749584198,-0.013270966708660126
1670358945693893400,4.404893310546875,0.050063133239746094,0.058355361223220825,-0.027128256857395172
1670358945703816700,4.414816650390625,-0.0096588134765625,0.024542778730392456,-0.01955459453165531
1670358945713740000,4.424739990234375,-0.037764549255371094,-0.03472033888101578,-0.019276807084679604
1670358945723663400,4.434663330078125,-0.030068397521972656,-0.062476515769958496,0.0021963322069495916
1670358945733586700,4.444586669921875,-0.020145416259765625,-0.04972567781805992,0.013786384835839272
1670358945743510000,4.454510009765625,-0.026876449584960938,-0.032579220831394196,0.04177511855959892
1670358945753433300,4.464433349609375,0.02068042755126953,0.007837001234292984,0.03621664643287659
1670358945763356700,4.474356689453125,0.04389190673828125,0.04768257960677147,0.007195274345576763
1670358945773280000,4.484280029296875,0.043160438537597656,0.05870039016008377,-0.01652832143008709
1670358945783203300,4.494203369140625,-0.009380340576171875,0.03665978088974953,-0.035042934119701385
1670358945793126700,4.504126708984375,-0.023357391357421875,-0.00867198035120964,-0.03911512717604637
1670358945803050000,4.514050048828125,-0.020612716674804688,-0.039114873856306076,-0.031444672495126724
1670358945812973300,4.523973388671875,-0.032047271728515625,-0.04334526136517525,-0.007516674697399139
1670358945822896600,4.533896728515625,-0.026803016662597656,-0.028660695999860764,0.025435252115130424
1670358945832820000,4.543820068359375,0.006619453430175781,-0.02835419401526451,0.027215786278247833
1670358945842743300,4.553743408203125,0.04184150695800781,0.0072805024683475494,0.026714053004980087
1670358945852666600,4.56366650390625,0.029366493225097656,0.04477979987859726,0.01915401965379715
1670358945862590000,4.57358984375,0.026521682739257812,0.029934898018836975,-0.002413330599665642
1670358945872513300,4.58351318359375,0.004879951477050781,0.006018184125423431,-0.02116268128156662
1670358945882436600,4.5934365234375,-0.016401290893554688,-0.003469575196504593,-0.02546622045338154
1670358945892360000,4.60335986328125,-0.023195266723632812,-0.015257749706506729,-0.02980101853609085
1670358945902283300,4.613283203125,-0.020453453063964844,-0.04569387063384056,-0.015219139866530895
1670358945912206600,4.62320654296875,-0.022469520568847656,-0.04274793714284897,0.006083386950194836
1670358945922130000,4.6331298828125,-0.015028953552246094,-0.004620768129825592,0.02948939986526966
1670358945932053200,4.64305322265625,0.008775711059570312,0.014026518911123276,0.02188311330974102
1670358945941976600,4.6529765625,-0.04790687561035156,0.017920739948749542,0.008765234611928463
1670358945951900000,4.66289990234375,0.044757843017578125,-0.006104670464992523,-0.024097833782434464
1670358945961823200,4.6728232421875,0.06756782531738281,0.010623671114444733,-0.028146516531705856
1670358945971746600,4.68274658203125,0.045243263244628906,0.031887322664260864,-0.015844780951738358
1670358945981670000,4.692669921875,-0.03795433044433594,0.024426959455013275,-0.003851057728752494
1670358945991593200,4.70259326171875,-0.01612091064453125,-0.006567593663930893,0.0008761151693761349
1670358946001516500,4.7125166015625,-0.0017185211181640625,-0.03940114006400108,0.007879550568759441
1670358946011439900,4.72243994140625,-0.013467788696289062,-0.04352378845214844,0.007700098212808371
1670358946021363200,4.73236328125,-0.04150962829589844,-0.031088821589946747,0.014590810053050518
1670358946031286500,4.74228662109375,-0.021974563598632812,-0.002475246787071228,0.014298973605036736
1670358946041209900,4.7522099609375,0.034923553466796875,0.02330591157078743,-0.00718745868653059
1670358946051133200,4.76213330078125,0.0366973876953125,0.022849254310131073,-0.0094713494181633
1670358946061056500,4.772056396484375,0.0031080245971679688,0.0295698419213295,-0.016428280621767044
1670358946070979800,4.781979736328125,-0.02521038055419922,0.0030976906418800354,-0.01374406274408102
1670358946080903200,4.791903076171875,-0.01772308349609375,-0.022933252155780792,-0.02298532798886299
1670358946090826500,4.801826416015625,-0.012717247009277344,-0.029788881540298462,-0.015583696775138378
1670358946100749800,4.811749755859375,-0.00543975830078125,-0.02721099928021431,0.003472341923043132
1670358946110673200,4.821673095703125,-0.014771461486816406,-0.01054275780916214,0.019855225458741188
1670358946120596500,4.831596435546875,0.009029388427734375,0.010661758482456207,0.014765074476599693
1670358946130519800,4.841519775390625,0.04421234130859375,0.02926027402281761,0.014470872469246387
1670358946140443400,4.851443359375,0.0293426513671875,0.01702958345413208,0.00015122909098863602
1670358946150366700,4.86136669921875,0.007653236389160156,0.012069400399923325,-0.018640855327248573
1670358946160290000,4.8712900390625,0.0004596710205078125,-0.009296983480453491,-0.03251161426305771
1670358946170213400,4.88121337890625,-0.016036033630371094,-0.013715393841266632,-0.017884546890854836
1670358946180136700,4.89113671875,-0.022835731506347656,-0.01816314458847046,0.00356539455242455
1670358946190060000,4.90106005859375,-0.013031959533691406,-0.03206196427345276,0.005813403986394405
1670358946199983400,4.9109833984375,0.0013189315795898438,-0.019818048924207687,0.010276522487401962
1670358946209906700,4.92090673828125,-0.0010595321655273438,0.008607707917690277,0.007598591037094593
1670358946219830000,4.930830078125,0.010735511779785156,0.010751575231552124,0.0003571617417037487
1670358946229753300,4.94075341796875,0.005845069885253906,0.01521526649594307,-0.013830237090587616
1670358946239676700,4.9506767578125,0.0057468414306640625,0.005368262529373169,-0.011189320124685764
1670358946249600000,4.96060009765625,0.0009403228759765625,0.005210570991039276,-0.008592416532337666
1670358946259523300,4.9705234375,0.16581058502197266,-0.03785935044288635,0.008403469808399677
1670358946269446700,4.98044677734375,-0.19500255584716797,-0.017229698598384857,-0.01728377304971218
1670358946279370000,4.990369873046875,0.02260112762451172,-0.040772221982479095,-0.009977149777114391
1670358946289293300,5.000293212890625,0.034005165100097656,0.0029599182307720184,-0.012214531190693378
1670358946299216600,5.010216552734375,0.04757404327392578,0.05282392352819443,0.018151188269257545
1670358946309140000,5.020139892578125,-0.012106895446777344,0.056895382702350616,0.02240866608917713
1670358946319063300,5.030063232421875,0.01871776580810547,0.016040463000535965,0.005498199723660946
1670358946328986600,5.039986572265625,0.02076244354248047,-0.03120020404458046,-0.0158415324985981
1670358946338910000,5.049909912109375,-0.021982192993164062,-0.058809082955121994,-0.025047842413187027
1670358946348833300,5.059833251953125,-0.06637096405029297,-0.046016398817300797,-0.008189630694687366
1670358946358756600,5.069756591796875,-0.015798568725585938,-0.014798454940319061,0.008284627459943295
1670358946368680000,5.079679931640625,0.022151947021484375,0.011188086122274399,0.005742864683270454
1670358946378603300,5.089603271484375,0.03591632843017578,0.03213337063789368,0.0103096142411232
1670358946388527400,5.09952734375,0.014118194580078125,0.017499253153800964,-0.006399220321327448
1670358946398451200,5.109451171875,-0.0026063919067382812,-0.00395762175321579,-0.011051801964640617
1670358946408374500,5.11937451171875,-0.0214080810546875,-0.017990220338106155,-0.01787940226495266
1670358946418297900,5.1292978515625,-0.011629104614257812,-0.02718082070350647,-0.012918432243168354
1670358946428221200,5.13922119140625,-0.020856857299804688,-0.024440471082925797,-0.015209794044494629
1670358946438144500,5.14914453125,-0.018154144287109375,-0.010071001946926117,0.010803681798279285
1670358946448067800,5.15906787109375,0.01983642578125,0.008873064070940018,0.00821993499994278
1670358946457991200,5.1689912109375,0.024217605590820312,0.015723619610071182,-0.0014903913252055645
1670358946467914500,5.17891455078125,-0.004452705383300781,0.017851874232292175,-0.001513680792413652
1670358946477837800,5.188837890625,-0.009089469909667969,-0.008321989327669144,-0.006247686687856913
1670358946487761200,5.19876123046875,-0.0042266845703125,-0.01767372339963913,-0.015613900497555733
1670358946497684500,5.2086845703125,-0.023000717163085938,-0.03158070519566536,-0.00833513680845499
1670358946507607800,5.21860791015625,-0.017907142639160156,-0.031225550919771194,0.008244527503848076
1670358946517531100,5.22853125,0.00830078125,-0.016742993146181107,0.015022670850157738
1670358946527454500,5.238454345703125,0.019939422607421875,-0.00014626607298851013,0.0076574962586164474
1670358946537377800,5.248377685546875,0.012540817260742188,0.018632374703884125,0.01680096983909607
1670358946547301000,5.258301025390625,0.017043113708496094,0.020712142810225487,-0.002268628217279911
1670358946557224400,5.268224365234375,0.0214691162109375,0.008623950183391571,-0.006886557210236788
1670358946567147800,5.278147705078125,0.006978034973144531,0.0061594173312187195,0.000246748561039567
1670358946577071000,5.288071044921875,-0.10620784759521484,-0.006407216191291809,-0.009434198029339314
1670358946586994400,5.297994384765625,-0.036128997802734375,-0.04436643421649933,-0.016597680747509003
1670358946596917800,5.307917724609375,-0.00490570068359375,-0.04379817843437195,-0.025688420981168747
1670358946606841000,5.317841064453125,0.039931297302246094,-0.005344592034816742,-0.003902488388121128
1670358946616764400,5.327764404296875,0.010999679565429688,0.04916292428970337,0.026736624538898468
1670358946626687700,5.337687744140625,0.032016754150390625,0.05073384568095207,0.023887336254119873
1670358946636611000,5.347611083984375,0.019704818725585938,0.02165636047720909,0.014018380083143711
1670358946646534400,5.357534423828125,0.03115558624267578,-0.013900130987167358,-0.01913764514029026
1670358946656457700,5.367457763671875,-0.004696846008300781,-0.044049933552742004,-0.025830481201410294
1670358946666381000,5.377381103515625,-0.05408477783203125,-0.04082246869802475,-0.020736997947096825
1670358946676304600,5.3873046875,-0.050827980041503906,-0.019010331481695175,-0.006409171037375927
1670358946686228000,5.39722802734375,0.0018405914306640625,0.0022323355078697205,-0.0016393769765272737
1670358946696151300,5.4071513671875,0.018299102783203125,0.009193576872348785,0.0006953690899536014
1670358946706074600,5.41707470703125,0.008571624755859375,0.01839432865381241,0.002990684937685728
1670358946715998000,5.426998046875,0.008428573608398438,0.008597321808338165,-0.0018183940555900335
1670358946725921300,5.43692138671875,0.015355110168457031,0.0060302577912807465,-0.006547320168465376
1670358946735844600,5.4468447265625,-0.0013895034790039062,0.00832008570432663,-0.011196919716894627
1670358946745768000,5.456767822265625,-0.010788917541503906,-0.010628238320350647,0.0006168739637359977
1670358946755691300,5.466691162109375,-0.022386550903320312,-0.024652644991874695,-0.004152639303356409
1670358946765614600,5.476614501953125,0.0038976669311523438,-0.026665538549423218,-0.006487108767032623
1670358946775538000,5.486537841796875,0.0038318634033203125,-0.00754789263010025,-0.0017165318131446838
1670358946785461200,5.496461181640625,-0.012721061706542969,0.01360669732093811,0.0029750545509159565
1670358946795384600,5.506384521484375,0.013401031494140625,0.0037865154445171356,-0.0041893161833286285
1670358946805308000,5.516307861328125,0.015533447265625,0.020144084468483925,-0.004167106002569199
1670358946815231200,5.526231201171875,0.010562896728515625,0.012776441872119904,0.005276440642774105
1670358946825154600,5.536154541015625,-0.010816574096679688,-0.011884130537509918,-0.030721262097358704
1670358946835078000,5.546077880859375,-0.0012140274047851562,-0.04258253052830696,0.0013812161050736904
1670358946845001200,5.556001220703125,0.02942657470703125,-0.05167217180132866,-0.012822739779949188
1670358946854924500,5.565924560546875,0.0831136703491211,-0.008170213550329208,-0.0059883808717131615
1670358946864848000,5.575847900390625,0.01577472686767578,0.06297630816698074,0.014040675014257431
1670358946874771200,5.585771240234375,-0.029242515563964844,0.07630077749490738,0.009562419727444649
1670358946884694500,5.595694580078125,-0.021689414978027344,0.016175009310245514,-0.009283512830734253
1670358946894617900,5.605617919921875,0.01165008544921875,-0.04530422016978264,-0.027918338775634766
1670358946904541200,5.615541259765625,-0.023878097534179688,-0.07995069026947021,-0.034464821219444275
1670358946914464500,5.625464599609375,-0.05881309509277344,-0.06690862774848938,-0.015094107948243618
1670358946924387800,5.635387939453125,-0.02721118927001953,-0.00472027063369751,0.025050761178135872
1670358946934311200,5.645311279296875,0.03448486328125,0.03287608176469803,0.03400732949376106
1670358946944234500,5.655234375,0.048043251037597656,0.04403768852353096,0.023970194160938263
1670358946954157800,5.66515771484375,0.026042938232421875,0.038627371191978455,-0.00003297184593975544
1670358946964081200,5.6750810546875,0.009120941162109375,0.019276900216937065,-0.03766641393303871
1670358946974004500,5.68500439453125,-0.016941070556640625,-0.009173274040222168,-0.04886453226208687
1670358946983927800,5.694927734375,-0.016658782958984375,-0.0232219360768795,-0.033964917063713074
1670358946993851100,5.70485107421875,-0.028159141540527344,-0.02761422097682953,-0.005180312320590019
1670358947003774500,5.7147744140625,-0.01355743408203125,-0.02732517570257187,0.013702332973480225
1670358947013697800,5.72469775390625,0.0031557083129882812,-0.012907624244689941,0.02284805104136467
1670358947023621000,5.73462109375,0.01016998291015625,0.013150379061698914,0.02006356790661812
1670358947033544400,5.74454443359375,0.021778106689453125,0.019929664209485054,0.005548235960304737
1670358947043467800,5.7544677734375,0.004925727844238281,0.0077515095472335815,-0.008725680410861969
1670358947053391000,5.76439111328125,-0.0022230148315429688,0.005198534578084946,-0.029725370928645134
1670358947063314400,5.774314453125,-0.021030426025390625,0.007502216845750809,-0.022211406379938126
1670358947073237800,5.78423779296875,-0.008902549743652344,-0.00682435929775238,-0.01717822439968586
1670358947083161000,5.7941611328125,-0.0016870498657226562,-0.023267708718776703,-0.00045115951797924936
1670358947093084400,5.80408447265625,-0.008726119995117188,-0.006459243595600128,0.01599711738526821
1670358947103007700,5.8140078125,-0.0038690567016601562,-0.004064247012138367,0.0227490421384573
1670358947112931000,5.82393115234375,0.0009069442749023438,-0.004064727574586868,0.012899557128548622
1670358947122854400,5.8338544921875,0.007958412170410156,-0.004065200686454773,-0.01327464822679758
1670358947132777700,5.84377783203125,0.010181427001953125,0.0031039752066135406,-0.010642988607287407
1670358947142701000,5.853701171875,0.007656097412109375,0.014864780008792877,-0.01983295939862728
1670358947152624600,5.863624755859375,0.0028171539306640625,0.005229588598012924,-0.014839421957731247
1670358947162548000,5.8735478515625,-0.011363029479980469,-0.006703551858663559,-0.012284662574529648
1670358947172471300,5.88347119140625,-0.018239974975585938,-0.01843780279159546,-0.00035026599653065205
1670358947182394600,5.89339453125,-0.008514404296875,-0.027620933949947357,0.018451884388923645
1670358947192318000,5.90331787109375,-0.008373260498046875,-0.0249762162566185,0.01574067585170269
1670358947202241300,5.9132412109375,-0.005878448486328125,-0.015205949544906616,0.022496869787573814
1670358947212164600,5.92316455078125,0.013064384460449219,0.0038237012922763824,0.007940472103655338
1670358947222088000,5.933087890625,0.001068115234375,0.00829988718032837,-0.0040177637711167336
1670358947232011300,5.94301123046875,0.05286216735839844,0.00398717075586319,-0.021504640579223633
1670358947241934600,5.9529345703125,-0.08228874206542969,-0.015506856143474579,-0.0634913221001625
1670358947251858000,5.96285791015625,-0.01967334747314453,-0.024841781705617905,-0.057667139917612076
1670358947261781200,5.97278125,0.08665752410888672,0.01616630330681801,0.015753205865621567
1670358947271704600,5.98270458984375,0.02868175506591797,0.06345466524362564,0.06429127603769302
1670358947281628000,5.9926279296875,-0.00006198883056640625,0.0532156266272068,0.07023830711841583
1670358947291551200,6.00255126953125,0.0070056915283203125,-0.018097180873155594,0.038397371768951416
1670358947301474600,6.012474609375,0.006890296936035156,-0.0670214593410492,-0.018823981285095215
1670358947311398000,6.02239794921875,-0.04740142822265625,-0.06812223792076111,-0.042113903909921646
1670358947321321200,6.0323212890625,-0.07252216339111328,-0.04575212672352791,-0.041563116014003754
1670358947331244500,6.04224462890625,-0.026558876037597656,0.013728078454732895,-0.019821515306830406
1670358947341167900,6.05216796875,0.028059959411621094,0.05091400444507599,-0.003153367666527629
1670358947351091200,6.06209130859375,0.055858612060546875,0.04528612643480301,0.013339952565729618
1670358947361014500,6.0720146484375,0.0313720703125,0.03278835117816925,0.020136171951889992
1670358947370937900,6.081937744140625,-0.011551856994628906,0.004009995609521866,0.01739690825343132
1670358947380861200,6.091861083984375,-0.032558441162109375,-0.03135540708899498,0.0005694878054782748
1670358947390784500,6.101784423828125,-0.015526771545410156,-0.06152324005961418,-0.008910327218472958
1670358947400707800,6.111707763671875,-0.024690628051757812,-0.048788297921419144,-0.0018462535226717591
1670358947410631200,6.121631103515625,-0.0101470947265625,-0.008101936429738998,-0.00893026776611805
1670358947420554500,6.131554443359375,0.025354385375976562,0.027195217087864876,-0.008829551748931408
1670358947430477800,6.141477783203125,0.024931907653808594,0.05258483812212944,-0.006374957039952278
1670358947440401200,6.151401123046875,0.026871681213378906,0.042320962995290756,0.0054609524086117744
1670358947450324500,6.161324462890625,0.01700305938720703,0.008775599300861359,0.0006107236258685589
1670358947460247800,6.171247802734375,-0.0021238327026367188,-0.019499540328979492,0.002908483147621155
1670358947470171100,6.181171142578125,-0.046843528747558594,-0.037984225898981094,0.012337098829448223
1670358947480094500,6.191094482421875,-0.06255245208740234,-0.05165567994117737,0.00737225916236639
1670358947490017800,6.201017822265625,-0.0827188491821289,-0.045443739742040634,-0.00044516613706946373
1670358947499941000,6.210941162109375,-0.06720924377441406,-0.04024923965334892,-0.07095938920974731
1670358947509864400,6.220864501953125,0.11528873443603516,0.01719554141163826,-0.0461784228682518
1670358947519787800,6.230787841796875,0.12279224395751953,0.11147476732730865,0.024386046454310417
1670358947529711400,6.24071142578125,-0.03943157196044922,0.12859904766082764,0.030895190313458443
1670358947539634700,6.250634765625,0.010693550109863281,0.032474298030138016,0.023368507623672485
1670358947549558000,6.26055810546875,0.03642749786376953,-0.08324836194515228,0.008900612592697144
1670358947559481300,6.2704814453125,-0.05840015411376953,-0.13108676671981812,-0.005429149139672518
1670358947569404700,6.28040478515625,-0.12809371948242188,-0.12190354615449905,0.006390990223735571
1670358947579328300,6.290328369140625,-0.060006141662597656,-0.037907425314188004,0.008488951250910759
1670358947589251600,6.30025146484375,0.05170249938964844,0.023591753095388412,-0.0012258095666766167
1670358947599175000,6.3101748046875,0.08852958679199219,0.09133847057819366,-0.015489771030843258
1670358947609098200,6.32009814453125,0.054076194763183594,0.10869535803794861,-0.019990824162960052
1670358947619021800,6.330021728515625,0.02962017059326172,0.05745190009474754,-0.022061292082071304
1670358947628945200,6.339945068359375,0.0008611679077148438,-0.006864860653877258,-0.019283154979348183
1670358947638868500,6.349868408203125,-0.03213024139404297,-0.06314598768949509,-0.00958764273673296
1670358947648791800,6.359791748046875,-0.059861183166503906,-0.08561430871486664,0.014079101383686066
1670358947658715100,6.369715087890625,-0.06357574462890625,-0.07964746654033661,0.03489335998892784
1670358947668638700,6.379638671875,-0.0036287307739257812,-0.031380072236061096,0.036619238555431366
1670358947678562000,6.38956201171875,0.036475181579589844,0.025402110069990158,0.017013415694236755
1670358947688485400,6.3994853515625,0.04057884216308594,0.07673271745443344,-0.011584905907511711
1670358947698408700,6.40940869140625,0.023413658142089844,0.05664415657520294,-0.03253694996237755
1670358947708332300,6.419332275390625,0.015956878662109375,0.015690438449382782,-0.046175599098205566
1670358947718255600,6.429255615234375,-0.014931678771972656,-0.0033807307481765747,-0.03357335925102234
1670358947728179000,6.439178955078125,-0.02881622314453125,-0.03862292319536209,-0.002439699601382017
1670358947738102300,6.449102294921875,-0.018914222717285156,-0.056788865476846695,0.02110840007662773
1670358947748025600,6.459025634765625,-0.013887405395507812,-0.03942170366644859,0.034738846123218536
1670358947757949200,6.46894921875,0.005187034606933594,0.012886341661214828,0.04117840901017189
1670358947767872500,6.47887255859375,0.028656959533691406,0.019670018926262856,0.007569196168333292
1670358947777795800,6.4887958984375,0.03524589538574219,0.02173249050974846,-0.01841319538652897
1670358947787719200,6.49871923828125,-0.007740020751953125,0.033285778015851974,-0.04170995578169823
1670358947797642800,6.508642822265625,-0.0217437744140625,0.01873542182147503,-0.04341845214366913
1670358947807566000,6.518566162109375,-0.02844715118408203,-0.02168944850564003,-0.035676248371601105
1670358947817489400,6.528489501953125,-0.025618553161621094,-0.049868714064359665,-0.011574205942451954
1670358947827412700,6.538412841796875,-0.011058807373046875,-0.04449760541319847,0.02625945582985878
1670358947837336000,6.548336181640625,0.015035629272460938,-0.013304919004440308,0.049226272851228714
1670358947847259600,6.558259765625,0.03834056854248047,0.01040416955947876,0.04835772141814232
1670358947857183000,6.568182861328125,0.030635833740234375,0.031465500593185425,0.026303661987185478
1670358947867106300,6.578106201171875,0.01834869384765625,0.03578992560505867,-0.0024489883799105883
1670358947877029600,6.588029541015625,0.0086212158203125,0.016486715525388718,-0.03768661618232727
1670358947886953000,6.597952880859375,-0.01978778839111328,-0.018983639776706696,-0.05359548702836037
1670358947896876300,6.607876220703125,-0.033591270446777344,-0.028054703027009964,-0.036158494651317596
1670358947906799600,6.617799560546875,-0.03303241729736328,-0.03246938809752464,-0.0026262078899890184
1670358947916723000,6.627722900390625,0.0028505325317382812,-0.02503272145986557,0.016110923141241074
1670358947926646300,6.637646240234375,0.021645545959472656,0.005835533142089844,0.03689131885766983
1670358947936569600,6.647569580078125,0.02364063262939453,0.024514496326446533,0.043295010924339294
1670358947946493000,6.657492919921875,0.02324676513671875,0.02414066717028618,0.012006080709397793
1670358947956416300,6.667416259765625,0.011082649230957031,0.01445382833480835,-0.009339145384728909
1670358947966339600,6.677339599609375,-0.007946014404296875,-0.006849329918622971,-0.037395279854536057
1670358947976263000,6.687262939453125,-0.021945953369140625,-0.023086342960596085,-0.03446508198976517
1670358947986186200,6.697186279296875,-0.0262908935546875,-0.02748088166117668,-0.02451656572520733
1670358947996109600,6.707109619140625,-0.009365081787109375,-0.020024411380290985,0.004110063426196575
1670358948006033000,6.717032958984375,-0.0021429061889648438,-0.008084062486886978,0.02273491397500038
1670358948015956200,6.726956298828125,0.026159286499023438,0.00140468031167984,0.024560471996665
1670358948025879600,6.736879638671875,0.01865673065185547,0.020260455086827278,0.026458565145730972
1670358948035803000,6.746802978515625,0.0065670013427734375,0.008179757744073868,0.00958356074988842
1670358948045726200,6.756726318359375,0.004101753234863281,0.003367070108652115,-0.009365744888782501
1670358948055649500,6.7666494140625,-0.014810562133789062,-0.008432067930698395,-0.02093256637454033
1670358948065572900,6.77657275390625,-0.038120269775390625,-0.01778196170926094,-0.025342917069792747
1670358948075496200,6.78649609375,-0.02335357666015625,-0.03681008517742157,-0.03757011145353317
1670358948085419500,6.79641943359375,-0.011187553405761719,-0.027151472866535187,-0.002585875801742077
1670358948095342800,6.8063427734375,0.03846263885498047,-0.024617519229650497,-0.006890180986374617
1670358948105266200,6.81626611328125,0.06373310089111328,0.01822749152779579,0.022472800686955452
1670358948115189500,6.826189453125,0.06502628326416016,0.058208808302879333,0.024611113592982292
1670358948125112800,6.83611279296875,-0.0067234039306640625,0.05512383580207825,0.03367800638079643
1670358948135036200,6.8460361328125,-0.0018987655639648438,0.011942870914936066,0.0072604818269610405
1670358948144959700,6.855959716796875,-0.006577491760253906,-0.039940621703863144,-0.025783412158489227
1670358948154883000,6.865883056640625,-0.048867225646972656,-0.07457350194454193,-0.04414325952529907
1670358948164806400,6.875806396484375,-0.06689739227294922,-0.054451413452625275,-0.02461123839020729
1670358948174729700,6.885729736328125,-0.032805442810058594,-0.0137736015021801,0.006270053330808878
1670358948184653000,6.895653076171875,-0.0063495635986328125,0.021412203088402748,0.020147789269685745
1670358948194576400,6.905576416015625,0.05028820037841797,0.042084161192178726,0.01730535924434662
1670358948204499700,6.915499755859375,0.06122875213623047,0.03660343214869499,-0.006586721166968346
1670358948214423000,6.925423095703125,0.027230262756347656,0.02189480885863304,-0.006422084756195545
1670358948224346400,6.935346435546875,-0.008556365966796875,0.002823200076818466,-0.013429827988147736
1670358948234269700,6.945269775390625,-0.008413314819335938,-0.018389075994491577,-0.008440027013421059
1670358948244193000,6.955193115234375,-0.022406578063964844,-0.04395892843604088,0.0010747371707111597
1670358948254116400,6.965116455078125,-0.022032737731933594,-0.029058195650577545,0.008075361140072346
1670358948264039700,6.975039794921875,-0.005176544189453125,-0.009797673672437668,0.02202596701681614
1670358948273963000,6.984962890625,0.013754844665527344,0.013852942734956741,0.007477413862943649
1670358948283886300,6.99488623046875,0.008813858032226562,0.020620504394173622,0.004949108697474003
1670358948293809700,7.0048095703125,0.020444869995117188,0.015497498214244843,-0.014025931246578693
1670358948303733000,7.01473291015625,0.010682106018066406,0.0010376572608947754,-0.023262502625584602
1670358948313656300,7.02465625,-0.010695457458496094,0.001158095896244049,-0.01104216929525137
1670358948323579600,7.03457958984375,-0.015226364135742188,-0.012856792658567429,-0.008550702594220638
1670358948333503000,7.0445029296875,-0.005550384521484375,-0.01967441290616989,-0.003745208028703928
1670358948343426300,7.05442626953125,-0.012523651123046875,-0.01470361277461052,0.008046853356063366
1670358948353349600,7.064349609375,-0.019382476806640625,-0.002748977392911911,0.00786512903869152
1670358948363273000,7.07427294921875,-0.00257110595703125,-0.007585447281599045,-0.0064474064856767654
1670358948373196300,7.0841962890625,-0.002529144287109375,-0.007630199193954468,-0.013454737141728401
1670358948383119600,7.09411962890625,0.004578590393066406,0.001748010516166687,-0.006211955100297928
1670358948393043000,7.10404296875,0.013925552368164062,0.008717317134141922,-0.0014459541998803616
1670358948402966300,7.11396630859375,0.0113372802734375,-0.005629509687423706,-0.006181085482239723
1670358948412889600,7.1238896484375,-0.005340576171875,-0.003248341381549835,-0.0037706373259425163
1670358948422813000,7.13381298828125,-0.0005397796630859375,0.0014486908912658691,-0.0014003629330545664
1670358948432736300,7.143736328125,0.006535530090332031,0.006067443639039993,0.0032859621569514275
1670358948442659600,7.15365966796875,0.006426811218261719,0.0011869929730892181,-0.003883586497977376
1670358948452583000,7.1635830078125,-0.02194690704345703,-0.0011535808444023132,-0.00847511738538742
1670358948462506200,7.17350634765625,-0.005092620849609375,-0.005913671106100082,-0.008279017172753811
1670358948472429600,7.1834296875,-0.007363319396972656,-0.02001664787530899,-0.015153358690440655
1670358948482353000,7.193352783203125,-0.016663551330566406,-0.010431986302137375,0.0014369880082085729
1670358948492276200,7.203276123046875,-0.014031410217285156,-0.005718182772397995,-0.000990635366179049
1670358948502199600,7.213199462890625,0.023889541625976562,0.0012726187705993652,0.006044419482350349
1670358948512123000,7.223122802734375,0.021135330200195312,0.02002762071788311,0.008250604383647442
1670358948522046200,7.233046142578125,-0.012193679809570312,0.019728584215044975,0.005812392104417086
1670358948531969500,7.242969482421875,0.004497528076171875,0.005301192402839661,-0.010821973904967308
1670358948541892900,7.252892822265625,0.009134292602539062,-0.00888572633266449,-0.013045273721218109
1670358948551816200,7.262816162109375,-0.023996353149414062,-0.013413980603218079,-0.017587073147296906
1670358948561739500,7.272739501953125,-0.016529083251953125,-0.015614170581102371,-0.01498651597648859
1670358948571662800,7.282662841796875,-0.013897895812988281,-0.020133238285779953,-0.007718194276094437
1670358948581586200,7.292586181640625,-0.001888275146484375,-0.008088111877441406,-0.0006739718373864889
1670358948591509500,7.302509521484375,0.0004978179931640625,0.003653302788734436,0.011066913604736328
1670358948601432800,7.312432861328125,0.024044036865234375,-0.00128985196352005,0.015442498959600925
1670358948611356400,7.3223564453125,-0.0022687911987304688,-0.003795076161623001,0.01513700932264328
1670358948621279700,7.33227978515625,-0.004586219787597656,-0.010866697877645493,0.010125504806637764
1670358948631203000,7.342203125,0.0237579345703125,-0.01997007429599762,-0.04783456027507782
1670358948641126400,7.35212646484375,0.0021610260009765625,-0.010695066303014755,-0.004904063418507576
1670358948651050000,7.362050048828125,0.020967483520507812,0.012867555022239685,-0.01920970343053341
1670358948660973300,7.371973388671875,0.03710746765136719,0.01022934541106224,-0.01668507419526577
1670358948670896600,7.381896728515625,0.0035123825073242188,0.026685485616326332,0.002389322966337204
1670358948680820000,7.391820068359375,0.005809783935546875,0.00978662446141243,0.011723602190613747
1670358948690743300,7.401743408203125,-0.010775566101074219,-0.011541698127985,0.023257866501808167
1670358948700667000,7.4116669921875,-0.008240699768066406,-0.03487011045217514,0.018111011013388634
1670358948710590200,7.421590087890625,-0.02459239959716797,-0.04849047586321831,0.008235849440097809
1670358948720513500,7.431513427734375,-0.031249046325683594,-0.024194974452257156,0.0033393502235412598
1670358948730436900,7.441436767578125,0.009314537048339844,0.009014870971441269,0.0007775671547278762
1670358948740360400,7.4513603515625,0.023291587829589844,0.02282676473259926,-0.015772394835948944
1670358948750283800,7.46128369140625,0.018192291259765625,0.029341794550418854,-0.010846533812582493
1670358948760207000,7.47120703125,-0.01744556427001953,0.026326021179556847,-0.01071387343108654
1670358948770130400,7.48113037109375,0.008755683898925781,-0.007158711552619934,-0.008227861486375332
1670358948780054000,7.491053955078125,-0.0031681060791015625,-0.037729810923337936,-0.008138838224112988
1670358948789977300,7.500977294921875,-0.014892578125,-0.02774697169661522,0.008334599435329437
1670358948799900700,7.510900634765625,-0.005222320556640625,-0.017930518835783005,0.022280896082520485
1670358948809824000,7.520823974609375,0.006641387939453125,0.001041565090417862,0.01715032011270523
1670358948819747300,7.530747314453125,0.0253753662109375,0.017547834664583206,0.0097497021779418
1670358948829671000,7.5406708984375,0.0037517547607421875,0.019645674154162407,0.00011687306687235832
1670358948839594200,7.55059423828125,0.008400917053222656,0.012286331504583359,-0.028096860274672508
1670358948849517600,7.560517578125,-0.0058727264404296875,-0.009083669632673264,-0.027676694095134735
1670358948859441000,7.57044091796875,-0.005774497985839844,-0.011356044560670853,-0.020093893632292747
1670358948869364500,7.580364501953125,-0.019811630249023438,-0.006523884832859039,-0.00567378755658865
1670358948879287800,7.590287841796875,-0.00534820556640625,-0.01355002447962761,0.0013363523175939918
1670358948889211100,7.600211181640625,0.004162788391113281,-0.01574796810746193,0.012940257787704468
1670358948899134500,7.610134521484375,0.011160850524902344,0.0009351633489131927,0.015032021328806877
1670358948909057800,7.620057861328125,0.0039081573486328125,0.010273579508066177,0.0076667084358632565
1670358948918981400,7.6299814453125,-0.0032243728637695312,0.0028644949197769165,0.002779706846922636
1670358948928904700,7.63990478515625,-0.019659996032714844,-0.004318147897720337,-0.004278926178812981
1670358948938828000,7.649828125,0.008933067321777344,-0.009128477424383163,-0.011425352655351162
1670358948948751400,7.65975146484375,0.008784294128417969,-0.006586033850908279,-0.01363859698176384
1670358948958675000,7.669675048828125,-0.003139495849609375,0.00287773460149765,0.005385030526667833
1670358948968598300,7.679598388671875,-0.014865875244140625,0.009725246578454971,0.005247167311608791
1670358948978521600,7.689521484375,0.01835918426513672,0.007036417722702026,0.014533822424709797
1670358948988445000,7.69944482421875,0.018053054809570312,-0.0025712959468364716,0.004821270704269409
1670358948998368300,7.7093681640625,0.0036182403564453125,-0.007307775318622589,0.0023372552823275328
1670358949008291600,7.71929150390625,-0.015285491943359375,-0.009609758853912354,-0.0024609146639704704
1670358949018215000,7.72921484375,-0.010320663452148438,-0.009517818689346313,-0.016601331532001495
1670358949028138200,7.73913818359375,-0.014859199523925781,-0.00942741334438324,-0.021083857864141464
1670358949038061600,7.7490615234375,0.004231452941894531,-0.01179702952504158,-0.01617242768406868
1670358949047985000,7.75898486328125,0.008872032165527344,-0.002246413379907608,0.0052489894442260265
1670358949057908200,7.768908203125,0.008723258972167969,0.0023309439420700073,0.014535613358020782
1670358949067831600,7.77883154296875,0.0038661956787109375,0.016357194632291794,0.014245245605707169
1670358949077755000,7.7887548828125,0.020290374755859375,-0.00047253072261810303,-0.00017360132187604904
1670358949087678200,7.79867822265625,0.0034627914428710938,-0.0005329102277755737,-0.0024718823842704296
1670358949097601500,7.8086015625,-0.02486133575439453,-0.01472557708621025,-0.01650913432240486
1670358949107524900,7.81852490234375,-0.019735336303710938,-0.007481709122657776,-0.023348748683929443
1670358949117448200,7.8284482421875,-0.0029172897338867188,-0.007425229996442795,-0.020755121484398842
1670358949127371800,7.838371826171875,-0.01700305938720703,0.00430510938167572,-0.011035089381039143
1670358949137295000,7.848295166015625,-0.007298469543457031,0.00877329334616661,0.0008784992387518287
1670358949147218400,7.858218505859375,0.014023780822753906,0.0014921985566616058,0.007985388860106468
1670358949157141800,7.868141845703125,0.023210525512695312,-0.012837175279855728,0.014870865270495415
1670358949167065000,7.878065185546875,0.0063343048095703125,-0.010335888713598251,0.0076112300157547
1670358949176988400,7.887988525390625,-0.010260581970214844,-0.0008096285164356232,0.009894803166389465
1670358949186911700,7.897911865234375,0.0040435791015625,-0.012642119079828262,-0.004451531916856766
1670358949196835000,7.9078349609375,0.006331443786621094,0.001736655831336975,-0.009136548265814781
1670358949206758400,7.91775830078125,-0.005551338195800781,0.003995046019554138,-0.006676819175481796
1670358949216681700,7.927681640625,-0.01959228515625,-0.0032064206898212433,-0.006613637320697308
1670358949226605000,7.93760498046875,-0.012198448181152344,-0.00557674840092659,-0.008907061070203781
1670358949236528400,7.9475283203125,-0.000217437744140625,-0.010263122618198395,-0.006348186172544956
1670358949246451700,7.95745166015625,-0.004924774169921875,-0.012515835464000702,-0.003934926353394985
1670358949256375000,7.967375,0.0022230148315429688,-0.005411770194768906,0.00550428219139576
1670358949266298400,7.97729833984375,-0.004881858825683594,0.008640572428703308,-0.0017022148240357637
1670358949276221700,7.9872216796875,-0.00008869171142578125,0.0013616904616355896,-0.0018249026034027338
1670358949286145000,7.99714501953125,-0.000087738037109375,-0.001187741756439209,-0.00901220552623272
1670358949296068400,8.007068359375,-0.009509086608886719,-0.001236163079738617,-0.013621201738715172
1670358949305991700,8.01699169921875,0.007137298583984375,-0.00845339521765709,-0.011086716316640377
1670358949315915000,8.0269150390625,-0.00004863739013671875,-0.003772575408220291,0.003080332651734352
1670358949325838300,8.03683837890625,0.0023069381713867188,0.0031857825815677643,0.007692013401538134
1670358949335761700,8.04676171875,-0.00479888916015625,-0.004002191126346588,0.005160172935575247
1670358949345685000,8.05668505859375,0.0047016143798828125,-0.0041066668927669525,-0.002143540885299444
1670358949355608300,8.0666083984375,-0.016576766967773438,-0.011276066303253174,-0.009325525723397732
1670358949365531600,8.07653173828125,-0.0021677017211914062,-0.011259306222200394,-0.020995954051613808
1670358949375455000,8.086455078125,0.004933357238769531,-0.008887272328138351,-0.004205226898193359
1670358949385378300,8.09637841796875,0.0119171142578125,0.009934104979038239,0.007491583935916424
1670358949395301600,8.106301513671875,0.00229644775390625,0.004989214241504669,0.02370455488562584
1670358949405225000,8.116224853515625,0.004612922668457031,0.01190449669957161,0.0114836310967803
1670358949415148300,8.126148193359375,0.018670082092285156,0.0022156424820423126,-0.0029921289533376694
1670358949425071600,8.136071533203125,0.008935928344726562,-0.009667284786701202,-0.014768107794225216
1670358949434995000,8.145994873046876,-0.00299072265625,-0.00947142019867897,-0.01692560687661171
1670358949444918300,8.155918212890626,-0.019430160522460938,0.00004042685031890869,-0.01198048610240221
1670358949454841600,8.165841552734374,-0.0073299407958984375,-0.00013143569231033325,-0.01653999835252762
1670358949464765000,8.175764892578124,0.0022144317626953125,-0.012078199535608292,-0.009245744906365871
1670358949474688300,8.185688232421874,-0.00489044189453125,-0.007336970418691635,-0.004531583283096552
1670358949484611600,8.195611572265625,0.0022573471069335938,0.006747454404830933,0.004815118853002787
1670358949494535000,8.205534912109375,0.011640548706054688,0.001752704381942749,0.002228275639936328
1670358949504458200,8.215458251953125,0.006733894348144531,0.001552298665046692,-0.002568041207268834
1670358949514381600,8.225381591796875,0.004265785217285156,-0.0008973516523838043,-0.005031832493841648
1670358949524305000,8.235304931640625,-0.0075836181640625,-0.003409147262573242,-0.0026404839009046555
1670358949534228200,8.245228271484375,-0.0027456283569335938,-0.010487213730812073,0.0020665640477091074
1670358949544151600,8.255151611328126,-0.02625560760498047,-0.024616941809654236,-0.0028300220146775246
1670358949554075000,8.265074951171876,-0.025819778442382812,-0.026939328759908676,-0.007644993253052235
1670358949563998200,8.274998291015624,-0.015969276428222656,-0.01273411139845848,-0.0029574932996183634
1670358949573921800,8.284921875,0.012562751770019531,0.0013373158872127533,0.004110395908355713
1670358949583845000,8.29484521484375,0.01941967010498047,0.017632722854614258,0.0016382732428610325
1670358949593768400,8.3047685546875,0.028517723083496094,0.029048386961221695,0.001562909223139286
1670358949603691800,8.31469189453125,0.0233306884765625,0.028496015816926956,-0.0009697151836007833
1670358949613615400,8.324615478515625,-0.0006132125854492188,0.009108416736125946,-0.010423820465803146
1670358949623538700,8.33453857421875,-0.033580780029296875,-0.017022717744112015,-0.03620922937989235
1670358949633462000,8.3444619140625,-0.03537750244140625,-0.03575462847948074,-0.04046786576509476
1670358949643385300,8.35438525390625,-0.02065563201904297,-0.02129952237010002,-0.016388868913054466
1670358949653308700,8.36430859375,0.007954597473144531,-0.009440895169973373,0.00268021272495389
1670358949663232300,8.374232177734376,0.03137683868408203,0.0022201016545295715,0.028395632281899452
1670358949673155600,8.384155517578124,0.035564422607421875,0.02095930464565754,0.04426024109125137
1670358949683079000,8.394078857421874,0.018484115600585938,0.030066929757595062,0.04111896827816963
1670358949693002200,8.404002197265624,0.01346588134765625,-0.005629800260066986,0.002696745563298464
1670358949702925800,8.41392578125,0.0061740875244140625,-0.029056787490844727,-0.016137704253196716
1670358949712849200,8.42384912109375,-0.022195816040039062,-0.03560444340109825,-0.01827234961092472
1670358949722772500,8.4337724609375,-0.01947021484375,-0.02801261469721794,-0.02743808552622795
1670358949732695800,8.44369580078125,-0.009724617004394531,-0.006516952067613602,-0.01289551891386509
1670358949742619100,8.453619140625,0.006926536560058594,0.017078973352909088,0.010826886631548405
1670358949752542700,8.463542724609376,0.020944595336914062,0.02379278838634491,0.010598833672702312
1670358949762466000,8.473466064453126,0.011173248291015625,0.03275018185377121,0.005662580486387014
1670358949772389400,8.483389404296876,-0.0031461715698242188,0.020358333364129066,-0.01096871867775917
1670358949782312700,8.493312744140624,-0.0054492950439453125,-0.008212883025407791,-0.02250874601304531
1670358949792236300,8.503236328125,-0.007714271545410156,-0.034055329859256744,-0.012656457722187042
1670358949802159600,8.51315966796875,0.00890350341796875,-0.02638634294271469,0.008809390477836132
1670358949812083000,8.5230830078125,0.013466835021972656,-0.0306229405105114,0.051014482975006104
1670358949822006300,8.53300634765625,0.034442901611328125,-0.03704151511192322,0.0880109891295433
1670358949831929600,8.5429296875,-0.003818511962890625,-0.03393091261386871,0.07246572524309158
1670358949841853200,8.552853271484375,-0.008465766906738281,-0.004961065948009491,0.02430475875735283
1670358949851776500,8.562776611328125,-0.0059680938720703125,-0.000029593706130981445,-0.03954240307211876
1670358949861699800,8.572699951171876,0.0106201171875,0.01649448461830616,-0.09065066277980804
1670358949871623200,8.582623046875,0.0033769607543945312,0.03991281986236572,-0.09850713610649109
1670358949881546800,8.592546630859376,0.010388374328613281,0.05351865291595459,-0.05912158265709877
1670358949891470000,8.602469970703124,0.033771514892578125,0.03166741132736206,-0.008511699736118317
1670358949901393400,8.612393310546874,0.03556632995605469,-0.006205514073371887,0.04135768488049507
1670358949911316700,8.622316650390625,0.03497505187988281,-0.024499770253896713,0.07390750199556351
1670358949921240300,8.632240234375,0.0650167465209961,0.0001168474555015564,0.06843151152133942
1670358949931163600,8.64216357421875,-0.1645526885986328,0.017153548076748848,-0.0007596318610012531
1670358949941087000,8.6520869140625,-0.0275421142578125,-0.06994418799877167,-0.05712287500500679
1670358949951010300,8.66201025390625,0.020028114318847656,-0.040374066680669785,-0.09820699691772461
1670358949960933600,8.67193359375,0.007917404174804688,0.028850633651018143,-0.06118254363536835
1670358949970857200,8.681857177734376,0.02898693084716797,0.0025964826345443726,-0.019858088344335556
1670358949980780500,8.691780517578126,-0.039806365966796875,0.019385838881134987,0.04658624157309532
1670358949990703900,8.701703857421874,0.07863521575927734,0.054636795073747635,0.07433727383613586
1670358950000627200,8.711627197265624,0.04199409484863281,0.023550737649202347,0.052262190729379654
1670358950010550800,8.72155078125,0.020096778869628906,-0.05627782270312309,0.01181312557309866
1670358950020474000,8.73147412109375,-0.0202789306640625,-0.028672955930233,-0.04219762235879898
1670358950030397400,8.7413974609375,-0.04584789276123047,0.028991015627980232,-0.06735057383775711
1670358950040320800,8.75132080078125,-0.05685997009277344,0.012465748935937881,-0.0802040845155716
1670358950050244000,8.761244140625,-0.03235435485839844,-0.02037600800395012,-0.06222064793109894
1670358950060167400,8.77116748046875,-0.0059032440185546875,-0.022254150360822678,-0.004595521371811628
1670358950070090800,8.7810908203125,-0.01758289337158203,-0.019492868334054947,0.04254399240016937
1670358950080014000,8.79101416015625,-0.010222434997558594,-0.014319080859422684,0.07261491566896439
1670358950089937400,8.8009375,0.022927284240722656,-0.013942651450634003,0.06674836575984955
1670358950099860700,8.81086083984375,0.0437469482421875,-0.0016917623579502106,0.01868259534239769
1670358950109784000,8.8207841796875,0.005330085754394531,0.029302377253770828,-0.035545751452445984
1670358950119707400,8.830707275390624,0.0052433013916015625,0.019735578447580338,-0.06767085939645767
1670358950129630700,8.840630615234375,0.009869575500488281,0.022105980664491653,-0.06863778829574585
1670358950139554000,8.850553955078125,-0.0232696533203125,0.03160654753446579,-0.03896639496088028
1670358950149477400,8.860477294921875,-0.03465843200683594,-0.032279375940561295,0.013663019984960556
1670358950159400700,8.870400634765625,0.024809837341308594,-0.05270056799054146,0.0371486134827137
1670358950169324000,8.880323974609375,-0.0132904052734375,-0.0491228885948658,0.053176116198301315
1670358950179247400,8.890247314453125,0.010489463806152344,-0.04079071059823036,0.0407722145318985
1670358950189170700,8.900170654296875,-0.08626079559326172,-0.016314536333084106,0.0024585765786468983
1670358950199094000,8.910093994140626,0.021178245544433594,0.005398057401180267,-0.028149249032139778
1670358950209017300,8.920017333984376,-0.04041767120361328,0.03617105633020401,-0.058350518345832825
1670358950218940700,8.929940673828124,-0.01854419708251953,0.00969194620847702,-0.05517362803220749
1670358950228864000,8.939864013671874,-0.0865468978881836,-0.011840637773275375,-0.03556079789996147
1670358950238787300,8.949787353515624,0.011470794677734375,-0.023797981441020966,0.016805868595838547
1670358950248710700,8.959710693359375,0.08430004119873047,-0.03309755027294159,0.033069390803575516
1670358950258634000,8.969634033203125,0.03578376770019531,-0.034969598054885864,0.044350750744342804
1670358950268557300,8.979557373046875,0.009276390075683594,0.005692485719919205,0.041310761123895645
1670358950278480600,8.989480712890625,0.023256301879882812,0.024579841643571854,0.002988130319863558
1670358950288404000,8.999404052734375,0.015804290771484375,0.02205539494752884,-0.0441180020570755
1670358950298327300,9.009327392578125,-0.022146224975585938,-0.006338052451610565,-0.06688348203897476
1670358950308250600,9.019250732421876,-0.052399635314941406,-0.013367198407649994,-0.051683660596609116
1670358950318174000,9.029174072265626,-0.044460296630859375,-0.02273768186569214,-0.013284584507346153
1670358950328097300,9.03909716796875,0.008100509643554688,-0.020277172327041626,0.02693302556872368
1670358950338020600,9.0490205078125,0.03151988983154297,-0.020213231444358826,0.06402183324098587
1670358950347944000,9.05894384765625,0.009794235229492188,-0.008166689425706863,0.06055102497339249
1670358950357867300,9.0688671875,0.035541534423828125,0.022626392543315887,0.02897498942911625
1670358950367790600,9.07879052734375,0.02788257598876953,0.01992855966091156,-0.0162087082862854
1670358950377714000,9.0887138671875,-0.057381629943847656,0.010106060653924942,-0.046506013721227646
1670358950387637500,9.098637451171875,-0.009314537048339844,-0.01368597149848938,-0.0598100908100605
1670358950397560800,9.108560791015625,-0.006804466247558594,-0.013628944754600525,-0.044728148728609085
1670358950407484200,9.118484130859375,-0.0019807815551757812,-0.011217299848794937,0.0007246281020343304
1670358950417407500,9.128407470703126,0.009829521179199219,-0.015809550881385803,0.03364209085702896
1670358950427330800,9.138330810546876,0.02144336700439453,0.003230258822441101,0.0448109395802021
1670358950437254100,9.148254150390626,0.03757476806640625,0.026766806840896606,0.03694920986890793
1670358950447177500,9.158177490234374,0.003971099853515625,0.026458561420440674,0.015084581449627876
1670358950457100800,9.168100830078124,-0.010227203369140625,-0.013889025896787643,-0.0276150144636631
1670358950467024100,9.178024169921875,-0.031256675720214844,-0.018333811312913895,-0.055469632148742676
1670358950476947500,9.187947509765625,-0.035447120666503906,-0.013385258615016937,-0.04281558468937874
1670358950486870800,9.197870849609375,-0.025434494018554688,-0.025110922753810883,-0.01859527826309204
1670358950496794000,9.207794189453125,0.0008983612060546875,-0.032033078372478485,0.009830117225646973
1670358950506717400,9.217717529296875,0.02208232879638672,-0.0034036077558994293,0.035529155284166336
1670358950516640800,9.227640869140625,0.012292861938476562,0.027207203209400177,0.04902210086584091
1670358950526564000,9.237564208984375,0.0026655197143554688,0.010196685791015625,0.03156561776995659
1670358950536487400,9.2474873046875,-0.09631538391113281,-0.02097247540950775,-0.009259028360247612
1670358950546411000,9.257410888671876,-0.16066932678222656,-0.07087831199169159,-0.0518617182970047
1670358950556334300,9.267334228515624,-0.14386653900146484,-0.08994743227958679,-0.09867120534181595
1670358950566257700,9.277257568359374,0.025765419006347656,-0.07121532410383224,-0.1021975427865982
1670358950576181000,9.287180908203124,0.17608356475830078,0.030060511082410812,-0.018303826451301575
1670358950586104600,9.2971044921875,0.20376873016357422,0.16570183634757996,0.0902056097984314
1670358950596028000,9.30702783203125,0.11557292938232422,0.2030193954706192,0.14764583110809326
1670358950605951200,9.316951171875,0.035915374755859375,0.10811290889978409,0.12403993308544159
1670358950615874600,9.32687451171875,-0.035347938537597656,-0.06530063599348068,0.011316434480249882
1670358950625798000,9.3367978515625,-0.16902542114257812,-0.22906628251075745,-0.11130612343549728
1670358950635721500,9.346721435546876,-0.24158954620361328,-0.24713434278964996,-0.15702207386493683
1670358950645644800,9.356644775390626,-0.2022380828857422,-0.1148659735918045,-0.12915898859500885
1670358950655568100,9.366568115234376,-0.055191993713378906,0.03332279622554779,-0.06417467445135117
1670358950665491500,9.376491455078124,0.042293548583984375,0.12015318870544434,0.016214996576309204
1670358950675415000,9.3864150390625,0.17820072174072266,0.12340039014816284,0.0671016126871109
1670358950685338400,9.39633837890625,0.18229198455810547,0.08726881444454193,0.09850133210420609
1670358950695261700,9.40626171875,0.1274280548095703,0.007395289838314056,0.10131683200597763
1670358950705185000,9.41618505859375,0.01694774627685547,-0.06377164274454117,0.08052981644868851
1670358950715108400,9.4261083984375,-0.037514686584472656,-0.06308586895465851,0.034178148955106735
1670358950725032000,9.436031982421875,-0.06515884399414062,-0.02963969111442566,-0.030245879665017128
1670358950734955300,9.445955322265625,-0.061720848083496094,-0.030037447810173035,-0.09369862824678421
1670358950744878600,9.455878662109376,-0.05127525329589844,-0.0070788003504276276,-0.11615230143070221
1670358950754802000,9.465802001953126,-0.024514198303222656,0.02471368946135044,-0.09112060815095901
1670358950764725500,9.4757255859375,0.030066490173339844,0.04184304177761078,-0.035986799746751785
1670358950774648800,9.48564892578125,0.0154266357421875,0.011575762182474136,0.03000587783753872
1670358950784572200,9.495572265625,0.029297828674316406,-0.011120449751615524,0.09029049426317215
1670358950794495500,9.50549560546875,0.031160354614257812,-0.01920222118496895,0.10010373592376709
1670358950804418800,9.515418701171875,0.01885986328125,-0.02940196916460991,0.06981228291988373
1670358950814342400,9.52534228515625,-0.0073699951171875,-0.030009590089321136,0.002233521081507206
1670358950824265700,9.535265625,-0.00018405914306640625,-0.0022374875843524933,-0.047627102583646774
1670358950834189000,9.54518896484375,0.028082847595214844,0.04862728714942932,-0.08487892895936966
1670358950844112400,9.5551123046875,0.013478279113769531,0.05624431371688843,-0.08156842738389969
1670358950854036000,9.565035888671876,0.013250350952148438,0.037823282182216644,-0.038268670439720154
1670358950863959300,9.574959228515626,0.03893852233886719,0.01049293577671051,0.01383459847420454
1670358950873882600,9.584882568359374,0.031221389770507812,-0.009315306320786476,0.06978057324886322
1670358950883806000,9.594805908203124,0.018921852111816406,-0.049890488386154175,0.07768302410840988
1670358950893729500,9.6047294921875,-0.012017250061035156,-0.044930972158908844,0.05022341385483742
1670358950903652900,9.61465283203125,0.014093399047851562,-0.011684423312544823,0.004377311561256647
1670358950913576200,9.624576171875,0.027991294860839844,0.037496719509363174,-0.04541635140776634
1670358950923499500,9.63449951171875,-0.014876365661621094,0.05748862028121948,-0.06846875697374344
1670358950933422800,9.6444228515625,0.004214286804199219,0.03474738076329231,-0.07229249179363251
1670358950943346400,9.654346435546875,-0.0005674362182617188,0.00777702871710062,-0.04543028771877289
1670358950953269800,9.664269775390625,0.013574600219726562,-0.025707503780722618,0.0022871694527566433
1670358950963193000,9.674193115234376,-0.010209083557128906,-0.03743398189544678,0.06098710000514984
1670358950973116400,9.684116455078126,0.020582199096679688,-0.03237318620085716,0.0763087347149849
1670358950983040000,9.6940400390625,0.013172149658203125,-0.006196768954396248,0.06546390056610107
1670358950992963300,9.70396337890625,-0.003536224365234375,0.017290771007537842,0.028888724744319916
1670358951002886700,9.71388671875,-0.02703380584716797,0.014372682198882103,-0.03288520872592926
1670358951012810000,9.72381005859375,-0.0312957763671875,-0.012155165895819664,-0.08195453882217407
1670358951022733300,9.7337333984375,0.0022029876708984375,-0.01714383065700531,-0.0925171747803688
1670358951032656600,9.74365673828125,0.025720596313476562,0.0015061385929584503,-0.04401513189077377
1670358951042580000,9.753580078125,0.034712791442871094,0.022406822070479393,0.013100972399115562
1670358951052503300,9.76350341796875,0.052978515625,0.028928790241479874,0.07407922297716141
1670358951062427000,9.773427001953126,0.03325080871582031,0.02377023547887802,0.08928564935922623
1670358951072350200,9.78335009765625,0.004429817199707031,-0.014177124947309494,0.05477200448513031
1670358951082273500,9.7932734375,-0.030976295471191406,-0.05149214714765549,-0.009685833007097244
1670358951092196900,9.80319677734375,-0.028104782104492188,-0.057768918573856354,-0.05197218433022499
1670358951102120200,9.8131201171875,-0.01821422576904297,-0.012118877843022346,-0.06764267385005951
1670358951112043500,9.82304345703125,0.012711524963378906,0.027956251055002213,-0.05007423833012581
1670358951121966800,9.832966796875,0.03369903564453125,0.04626646265387535,-0.013954170048236847
1670358951131890200,9.84289013671875,0.05904960632324219,0.05505526065826416,0.028733551502227783
1670358951141813500,9.8528134765625,0.05335521697998047,0.021503686904907227,0.05196858569979668
1670358951151736800,9.86273681640625,0.024200439453125,-0.025518979877233505,0.04665274918079376
1670358951161660200,9.87266015625,-0.0044689178466796875,-0.043388351798057556,0.0295445267111063
1670358951171583500,9.88258349609375,-0.004393577575683594,-0.03504880517721176,0.00811332743614912
1670358951181506800,9.8925068359375,-0.03965282440185547,-0.008003829047083855,-0.01777481660246849
1670358951191430100,9.90243017578125,0.02460956573486328,0.01152370497584343,-0.04558706283569336
1670358951201353500,9.912353515625,0.0736684799194336,0.033390387892723083,-0.044669125229120255
1670358951211276800,9.92227685546875,0.025331497192382812,0.069129079580307,0.0011950940825045109
1670358951221200100,9.9322001953125,-0.05517768859863281,0.052347034215927124,0.02273963764309883
1670358951231123500,9.94212353515625,0.04703235626220703,-0.039430171251297,0.01094706542789936
1670358951241046800,9.952046875,0.06745243072509766,-0.060954514890909195,0.013484369963407516
1670358951250970000,9.96197021484375,-0.039669036865234375,-0.01626749336719513,0.013726881705224514
1670358951260893400,9.9718935546875,-0.022515296936035156,-0.0029475390911102295,0.004440059419721365
1670358951270816800,9.981816650390625,-0.04098224639892578,0.0005221106112003326,-0.007047564722597599
1670358951280740000,9.991739990234375,-0.023807525634765625,-0.0032358169555664062,-0.025410426780581474
1670358951290663400,10.001663330078125,-0.006918907165527344,-0.011642251163721085,-0.04357028007507324
1670358951300586800,10.011586669921876,-0.03506755828857422,-0.01284191757440567,-0.023738622665405273
1670358951310510000,10.021510009765626,-0.027414321899414062,-0.007057983428239822,0.012251357547938824
1670358951320433400,10.031433349609374,-0.008111000061035156,-0.010998722165822983,0.019374456256628036
1670358951330356700,10.041356689453124,0.027360916137695312,0.0065322332084178925,0.031090697273612022
1670358951340280000,10.051280029296874,0.029264450073242188,0.02858513407409191,0.028580961748957634
1670358951350203400,10.061203369140625,0.03349113464355469,0.015040230005979538,0.01904640533030033
1670358951360126700,10.071126708984375,0.02587127685546875,0.011349378153681755,0.00035156658850610256
1670358951370050000,10.081050048828125,-0.007533073425292969,0.02656453475356102,-0.018134700134396553
1670358951379973400,10.090973388671875,-0.04509162902832031,0.003734201192855835,-0.029246648773550987
1670358951389896700,10.100896728515625,-0.08909225463867188,-0.08016611635684967,-0.0495956651866436
1670358951399820000,10.110820068359375,-0.08289432525634766,-0.0923105925321579,-0.048714157193899155
1670358951409743400,10.120743408203126,-0.03204345703125,-0.05253353342413902,-0.01712219789624214
1670358951419666700,10.130666748046876,-0.05506420135498047,-0.013728346675634384,0.01855083927512169
1670358951429590000,10.140590087890626,-0.011744499206542969,-0.008547715842723846,0.02997131645679474
1670358951439513300,10.150513427734374,0.01671886444091797,0.029524315148591995,0.024712571874260902
1670358951449436700,10.160436767578124,0.05413055419921875,0.043509237468242645,0.005511112976819277
1670358951459360300,10.1703603515625,0.0061187744140625,-0.0016277357935905457,-0.02975621446967125
1670358951469283600,10.18028369140625,-0.04580402374267578,-0.03433762118220329,-0.036272082477808
1670358951479207000,10.19020703125,-0.045040130615234375,-0.024102382361888885,-0.028649011626839638
1670358951489130200,10.200130126953125,0.014600753784179688,-0.009429596364498138,-0.016338927671313286
1670358951499053600,10.210053466796875,0.023779869079589844,-0.013845782727003098,0.009899310767650604
1670358951508977200,10.21997705078125,0.011607170104980469,0.005470145493745804,0.033241722732782364
1670358951518900500,10.229900390625,-0.007430076599121094,0.04095301777124405,0.03499510511755943
1670358951528823800,10.23982373046875,-0.012015342712402344,0.014497127383947372,0.003844484919682145
1670358951538747100,10.2497470703125,-0.021238327026367188,-0.037531886249780655,-0.03866769000887871
1670358951548670700,10.259670654296874,-0.032662391662597656,-0.06524117290973663,-0.04759654402732849
1670358951558594000,10.269593994140624,-0.039185523986816406,-0.02899162471294403,-0.0351766012609005
1670358951568517400,10.279517333984375,-0.019690513610839844,-0.002871386706829071,-0.01118587888777256
1670358951578440700,10.289440673828125,0.0018358230590820312,0.003866150975227356,0.012302061542868614
1670358951588364000,10.299364013671875,0.04184722900390625,0.010594338178634644,0.02843482233583927
1670358951598287600,10.30928759765625,0.04821586608886719,0.026735525578260422,0.02780982106924057
1670358951608211000,10.3192109375,0.021500587463378906,0.0215106513351202,0.017875974997878075
1670358951618134300,10.32913427734375,-0.037746429443359375,-0.004724171012639999,-0.0036700733471661806
1670358951628057600,10.3390576171875,-0.03947257995605469,-0.023660998791456223,-0.029671084135770798
1670358951637981200,10.348981201171876,-0.03881645202636719,-0.028251834213733673,-0.04356391727924347
1670358951647904500,10.358904541015624,-0.02875041961669922,-0.028260909020900726,-0.03602520376443863
1670358951657827800,10.368827880859374,-0.0070743560791015625,-0.01884758472442627,-0.01447879895567894
1670358951667751200,10.378751220703125,0.028374671936035156,0.0020836852490901947,0.00906405784189701
1670358951677674500,10.388674560546875,0.04909992218017578,0.03700527921319008,0.041636742651462555
1670358951687598000,10.39859814453125,0.05299091339111328,0.04092850536108017,0.043147291988134384
1670358951697521400,10.408521484375,0.01912975311279297,0.0023863501846790314,0.03060229681432247
1670358951707444700,10.41844482421875,0.021165847778320312,-0.021277163177728653,-0.002933601150289178
1670358951717368000,10.4283681640625,-0.03336524963378906,-0.018738150596618652,-0.021776748821139336
1670358951727291600,10.438291748046876,-0.056365013122558594,-0.03518884629011154,-0.0333426408469677
1670358951737215000,10.448215087890626,-0.04129505157470703,-0.04921568185091019,-0.04707131162285805
1670358951747138300,10.45813818359375,0.006500244140625,-0.0017642974853515625,-0.025340797379612923
1670358951757061600,10.4680615234375,0.04643440246582031,0.0354740135371685,0.01016086433082819
1670358951766985200,10.477985107421874,0.050370216369628906,0.04874201491475105,0.033396005630493164
1670358951776908500,10.487908447265625,0.058953285217285156,0.04786144942045212,0.04927971959114075
1670358951786832000,10.497831787109375,0.024992942810058594,0.025898538529872894,0.03437995910644531
1670358951796755200,10.507755126953125,-0.008400917053222656,-0.002559039741754532,0.0032396558672189713
1670358951806678500,10.517678466796875,-0.024748802185058594,-0.05184530094265938,-0.0344487801194191
1670358951816602000,10.52760205078125,-0.069091796875,-0.0675382986664772,-0.055019740015268326
1670358951826525400,10.537525390625,-0.05616283416748047,-0.03842012584209442,-0.04483158141374588
1670358951836448800,10.54744873046875,-0.024606704711914062,-0.012348674237728119,-0.009005075320601463
1670358951846372000,10.5573720703125,0.025267601013183594,0.0016134455800056458,0.005024351645261049
1670358951856295700,10.567295654296874,0.05075550079345703,0.020053952932357788,0.04012288153171539
1670358951866219000,10.577218994140624,0.047554969787597656,0.043207064270973206,0.05353941023349762
1670358951876142300,10.587142333984374,0.027917861938476562,0.03545503318309784,0.036213092505931854
1670358951886065700,10.597065673828125,0.006252288818359375,-0.0004344359040260315,0.002686683088541031
1670358951895989000,10.606989013671875,-0.03625202178955078,-0.04053983837366104,-0.03745058923959732
1670358951905912600,10.61691259765625,-0.06391525268554688,-0.04239090532064438,-0.05817744508385658
1670358951915836000,10.6268359375,-0.05107402801513672,-0.04677256569266319,-0.055106259882450104
1670358951925759200,10.63675927734375,-0.01960277557373047,-0.02527301013469696,-0.0191084872931242
1670358951935682600,10.6466826171875,0.011343955993652344,0.0029348991811275482,0.021000439301133156
1670358951945606100,10.656606201171876,0.03235340118408203,0.04480598494410515,0.048766061663627625
1670358951955529500,10.666529541015626,0.04594612121582031,0.04378511384129524,0.05732744187116623
1670358951965452800,10.676452880859374,0.03811359405517578,0.024142712354660034,0.02570173144340515
1670358951975376100,10.686376220703124,0.011567115783691406,-0.014016754925251007,-0.017174655571579933
1670358951985299500,10.696299560546874,-0.03102588653564453,-0.030340243130922318,-0.04049200564622879
1670358951995223000,10.70622314453125,-0.056420326232910156,-0.02775316685438156,-0.051745932549238205
1670358952005146400,10.716146484375,-0.046059608459472656,-0.03719284012913704,-0.04878190904855728
1670358952015069700,10.726069580078125,-0.005249977111816406,-0.020564060658216476,-0.012889507226645947
1670358952024993000,10.735992919921875,0.011324882507324219,0.014632018283009529,0.020049134269356728
1670358952034916600,10.74591650390625,0.027622222900390625,0.03500520810484886,0.05479435622692108
1670358952044840000,10.75583984375,0.03893756866455078,0.022266950458288193,0.04656052216887474
1670358952054763300,10.76576318359375,0.047710418701171875,0.012302430346608162,0.029247604310512543
1670358952064686600,10.7756865234375,0.023359298706054688,-0.0021041780710220337,-0.016146373003721237
1670358952074610000,10.78560986328125,-0.08067607879638672,0.0018528439104557037,-0.02515517547726631
1670358952084533200,10.795533203125,-0.0157318115234375,-0.040852174162864685,-0.06728686392307281
1670358952094456800,10.805456787109375,0.005728721618652344,-0.01914246380329132,-0.051461972296237946
1670358952104380200,10.815380126953125,0.029189109802246094,0.009477954357862473,-0.009784245863556862
1670358952114303500,10.825303466796875,0.012213706970214844,0.03280731290578842,0.03785371780395508
1670358952124226800,10.835226806640625,0.023787498474121094,0.018058976158499718,0.056019239127635956
1670358952134150100,10.845150146484375,-0.00487518310546875,-0.01528799906373024,0.052682019770145416
1670358952144073500,10.855073486328125,-0.00008392333984375,-0.03640439733862877,-0.0000662156380712986
1670358952153996800,10.864996826171875,0.004628181457519531,-0.04293256625533104,-0.04015754908323288
1670358952163920100,10.874920166015626,-0.00015926361083984375,-0.025693420320749283,-0.04895849525928497
1670358952173843500,10.884843505859376,-0.007224082946777344,0.017066538333892822,-0.03405723348259926
1670358952183766800,10.894766845703124,0.0023193359375,0.059113841503858566,-0.012337653897702694
1670358952193690000,10.904690185546874,0.04232501983642578,0.03460781276226044,0.013731049373745918
1670358952203613400,10.914613525390624,0.018064498901367188,0.003443557769060135,0.01816529408097267
1670358952213536800,10.924536865234375,-0.0010805130004882812,-0.02238721400499344,0.02498415857553482
1670358952223460000,10.934460205078125,-0.03639507293701172,-0.031298600137233734,0.017556048929691315
1670358952233383400,10.944383544921875,-0.024010658264160156,-0.042520035058259964,-0.0063405390828847885
1670358952243306800,10.954306640625,-0.0212554931640625,-0.03491590917110443,-0.02523029036819935
1670358952253230000,10.96422998046875,-0.009124755859375,-0.003882966935634613,-0.03428003564476967
1670358952263153400,10.9741533203125,-0.008973121643066406,0.02673572674393654,-0.03621524199843407
1670358952273076700,10.98407666015625,0.0005979537963867188,0.028371550142765045,-0.01210414245724678
1670358952283000000,10.994,0.033565521240234375,0.013697147369384766,-0.0026311655528843403
1670358952292923400,11.00392333984375,0.025938987731933594,-0.005340829491615295,0.018564656376838684
1670358952302846700,11.0138466796875,-0.021604537963867188,-0.009928155690431595,0.025377269834280014
1670358952312770000,11.02377001953125,-0.023601531982421875,-0.0334894135594368,0.015484079718589783
1670358952322693400,11.033693359375,-0.006720542907714844,-0.047235772013664246,-0.003769401228055358
1670358952332616700,11.04361669921875,-0.0018978118896484375,-0.015997499227523804,-0.02259903773665428
1670358952342540000,11.0535400390625,-0.00893402099609375,0.01697273552417755,-0.02227041684091091
1670358952352463400,11.06346337890625,-0.018207550048828125,0.02348238416016102,-0.022050222381949425
1670358952362386700,11.07338671875,0.005650520324707031,0.006328005343675613,-0.01947813108563423
1670358952372310000,11.08331005859375,0.012622833251953125,0.003695812076330185,-0.007526691071689129
1670358952382233300,11.0932333984375,0.014767646789550781,-0.010670281946659088,0.018358882516622543
1670358952392156700,11.10315673828125,0.00745391845703125,-0.022441398352384567,0.0180048905313015
1670358952402080000,11.113080078125,-0.009160041809082031,-0.01752745732665062,0.024723459035158157
1670358952412003300,11.12300341796875,0.007481575012207031,0.010963080450892448,0.01709376648068428
1670358952421926700,11.1329267578125,0.014424324035644531,0.015423230826854706,-0.013861341401934624
1670358952431850000,11.14285009765625,0.00005054473876953125,0.0034230872988700867,-0.03252317011356354
1670358952441773300,11.152773193359375,-0.0070171356201171875,-0.008479967713356018,-0.03202912583947182
1670358952451696600,11.162696533203125,-0.016323089599609375,0.0009124279022216797,-0.019868098199367523
1670358952461620000,11.172619873046875,-0.018407821655273438,-0.011051729321479797,0.001615016022697091
1670358952471543300,11.182543212890625,-0.008680343627929688,-0.027630548924207687,0.006148247048258781
1670358952481467000,11.192466796875,-0.013247489929199219,-0.01802196353673935,0.020028140395879745
1670358952491390200,11.20239013671875,0.0034608840942382812,-0.008573520928621292,0.014935226179659367
1670358952501313500,11.2123134765625,0.012824058532714844,0.0030730031430721283,0.0005049793981015682
1670358952511236900,11.22223681640625,0.024387359619140625,0.01227281242609024,-0.018395869061350822
1670358952521160400,11.232160400390624,0.016913414001464844,0.018963772803544998,-0.02295093610882759
1670358952531083800,11.242083740234374,0.01427459716796875,0.02318762242794037,-0.008483091369271278
1670358952541007000,11.252007080078124,0.0022592544555664062,0.008702566847205162,0.0010325182229280472
1670358952550930400,11.261930419921875,-0.0024900436401367188,-0.015066247433423996,0.003322874428704381
1670358952560854000,11.27185400390625,-0.00244903564453125,-0.03147522360086441,0.010286164470016956
1670358952570777300,11.28177734375,-0.030675888061523438,-0.03347739577293396,0.0028971079736948013
1670358952580700700,11.29170068359375,-0.020743370056152344,-0.03083803877234459,-0.006724347360432148
1670358952590624000,11.3016240234375,-0.0086212158203125,-0.014212295413017273,-0.009118780493736267
1670358952600547300,11.31154736328125,0.02214336395263672,0.014017079025506973,-0.013828856870532036
1670358952610471000,11.321470947265626,0.019418716430664062,0.037064846605062485,-0.001971554011106491
1670358952620394200,11.331394287109376,0.023805618286132812,0.03637886047363281,0.005079984664916992
1670358952630317600,11.341317626953124,0.030475616455078125,0.009793207049369812,0.00023623323068022728
1670358952640241000,11.351240966796874,0.018190383911132812,-0.013993803411722183,0.0025398731231689453
1670358952650164500,11.36116455078125,-0.019802093505859375,-0.03267325833439827,-0.009328207932412624
1670358952660087800,11.371087890625,-0.03125,-0.039263613522052765,-0.006865167990326881
1670358952670011100,11.38101123046875,-0.02366352081298828,-0.029358208179473877,-0.011612809263169765
1670358952679934500,11.3909345703125,-0.0067806243896484375,-0.005587529391050339,-0.009214658290147781
1670358952689857800,11.40085791015625,0.005108833312988281,0.01768401637673378,-0.009212026372551918
1670358952699781400,11.410781494140625,0.02386760711669922,0.024181783199310303,-0.0021427697502076626
1670358952709704700,11.42070458984375,0.032891273498535156,0.023607496172189713,-0.004613923840224743
1670358952719628000,11.4306279296875,0.029987335205078125,0.025501294061541557,0.004836850333958864
1670358952729551400,11.44055126953125,0.022420883178710938,-0.0008000992238521576,0.007063822355121374
1670358952739475000,11.450474853515624,0.005558013916015625,-0.017240919172763824,0.009253674186766148
1670358952749398300,11.460398193359374,-0.025156021118164062,-0.026238083839416504,-0.00037074508145451546
1670358952759321600,11.470321533203125,-0.029447555541992188,-0.02115793526172638,-0.012190314009785652
1670358952769245000,11.480244873046875,-0.03838062286376953,-0.020976528525352478,-0.014287704601883888
1670358952779168300,11.490168212890625,-0.016541481018066406,-0.018545541912317276,-0.023622732609510422
1670358952789091800,11.500091796875,-0.004488945007324219,-0.0020217373967170715,-0.016313297674059868
1670358952799015200,11.51001513671875,0.016785621643066406,0.014226673170924187,-0.009125680662691593
1670358952808938500,11.5199384765625,0.023571014404296875,0.018529465422034264,0.009719911962747574
1670358952818861800,11.52986181640625,0.013756752014160156,0.013441281393170357,0.01893216371536255
1670358952828785400,11.539785400390626,0.015883445739746094,0.0013712383806705475,0.011604970321059227
1670358952838708700,11.549708740234376,-0.0032262802124023438,-0.005786534398794174,0.0066524832509458065
1670358952848632000,11.559632080078124,-0.029083251953125,-0.01989161968231201,-0.01706153340637684
1670358952858555400,11.569555419921874,-0.02859973907470703,-0.031509075313806534,-0.01682513952255249
1670358952868478700,11.579478759765625,-0.01163482666015625,-0.014872130006551743,-0.02130342461168766
1670358952878402300,11.58940234375,0.000335693359375,-0.003120657056570053,-0.00921856053173542
1670358952888325600,11.59932568359375,0.007395744323730469,0.006079407408833504,0.004917483311146498
1670358952898249000,11.6092490234375,0.007271766662597656,0.005703916773200035,0.02117348276078701
1670358952908172300,11.61917236328125,0.02128314971923828,0.0007265284657478333,0.008891905657947063
1670358952918096000,11.629095947265625,0.013861656188964844,-0.015945684164762497,-0.003082016482949257
1670358952928019200,11.639019287109376,0.011275291442871094,-0.006325963884592056,-0.0007230518385767937
1670358952937942500,11.648942626953126,0.008731842041015625,0.0007778704166412354,-0.003114513121545315
1670358952947865900,11.658865966796874,0.01329803466796875,0.014932941645383835,-0.01017722487449646
1670358952957789200,11.6687890625,0.008364677429199219,0.014615800231695175,-0.005241477862000465
1670358952967712800,11.678712646484374,-0.010619163513183594,-0.0068960413336753845,-0.0004909657873213291
1670358952977636000,11.688635986328125,-0.015152931213378906,-0.020982693880796432,-0.005241843871772289
1670358952987559400,11.698559326171875,-0.01490020751953125,-0.03483456000685692,-0.01237206906080246
1670358952997482800,11.708482666015625,-0.03349781036376953,-0.027461517602205276,-0.002894580364227295
1670358953007406300,11.71840625,-0.028228759765625,-0.0249224491417408,-0.005249849054962397
1670358953017329700,11.72832958984375,0.016996383666992188,0.0034854039549827576,-0.005313267931342125
1670358953027253000,11.7382529296875,0.049689292907714844,0.03131682425737381,-0.01715339906513691
1670358953037176300,11.74817626953125,0.055927276611328125,0.05417919158935547,-0.007493242621421814
1670358953047100000,11.758099853515626,0.019662857055664062,0.022791700437664986,-0.00034963712096214294
1670358953057023200,11.768023193359374,0.0004911422729492188,0.00841621682047844,-0.002644322346895933
1670358953066946600,11.777946533203124,-0.00658416748046875,-0.01985299214720726,0.004521452821791172
1670358953076870000,11.787869873046875,-0.03709697723388672,-0.0595318041741848,0.004501130897551775
1670358953086793200,11.797793212890625,-0.04590034484863281,-0.07980784773826599,0.00212557939812541
1670358953096716800,11.807716796875,-0.035714149475097656,-0.04096002131700516,0.0043981075286865234
1670358953106640100,11.81764013671875,-0.004497528076171875,0.011270653456449509,-0.005248337984085083
1670358953116563500,11.8275634765625,0.03326606750488281,0.029653068631887436,-0.012275489047169685
1670358953126486800,11.83748681640625,0.044487953186035156,0.04066243767738342,-0.00976329855620861
1670358953136410400,11.847410400390626,0.041390419006347656,0.04462758079171181,-0.004937418736517429
1670358953146333700,11.857333740234376,0.021856307983398438,0.018007420003414154,-0.004800090566277504
1670358953156257000,11.867257080078126,-0.011486053466796875,-0.017591286450624466,-0.0024124779738485813
1670358953166180400,11.877180419921874,-0.025427818298339844,-0.04081891104578972,0.007002000696957111
1670358953176103700,11.887103759765624,-0.03913688659667969,-0.0543401800096035,0.002023261971771717
1670358953186027300,11.89702734375,-0.03612995147705078,-0.046539079397916794,0.00654972018674016
1670358953195950600,11.90695068359375,-0.02139568328857422,-0.027090221643447876,-0.0007770308293402195
1670358953205874000,11.9168740234375,0.004870414733886719,0.015590094029903412,-0.00798130128532648
1670358953215797200,11.92679736328125,0.030699729919433594,0.0363590233027935,-0.0032880925573408604
1670358953225720800,11.936720947265625,0.03725433349609375,0.04049885645508766,-0.012703459709882736
1670358953235644200,11.94664404296875,0.02721118927001953,0.028080817312002182,-0.007828574627637863
1670358953245567500,11.9565673828125,0.012624740600585938,-0.00533023476600647,0.0016761715523898602
1670358953255490800,11.96649072265625,-0.022919654846191406,-0.02394813299179077,0.0017032683826982975
1670358953265414100,11.9764140625,-0.024893760681152344,-0.0448172502219677,0.0038795056752860546
1670358953275337500,11.98633740234375,-0.03154468536376953,-0.03707189857959747,0.003766890149563551
1670358953285260800,11.9962607421875,-0.009819984436035156,-0.02023935317993164,0.003553180955350399
1670358953295184100,12.00618408203125,-0.0002346038818359375,-0.0013317950069904327,-0.008434733375906944
1670358953305107500,12.016107421875,0.01861286163330078,0.019719161093235016,-0.006089523434638977
