time,seconds_elapsed,z,y,x
1670358941526095000,0.23709521484375,-0.0011983871227130294,-0.0015978495357558131,0.000665770610794425
1670358941536018400,0.247018310546875,-0.0001331541279796511,-0.0005326165119186044,0.0017310036346316338
1670358941545941800,0.256941650390625,-0.0001331541279796511,-0.0005326165119186044,0.000665770610794425
1670358941555864800,0.26686474609375,-0.0011983871227130294,-0.0015978495357558131,0.000665770610794425
1670358941565788200,0.2767880859375,-0.0011983871227130294,-0.0005326165119186044,0.000665770610794425
1670358941575711200,0.286711181640625,-0.0001331541279796511,-0.0005326165119186044,0.000665770610794425
1670358941585634600,0.296634521484375,-0.0011983871227130294,-0.0005326165119186044,0.000665770610794425
1670358941595558000,0.306557861328125,-0.0011983871227130294,-0.0005326165119186044,-0.0003994623839389533
1670358941605481000,0.31648095703125,-0.0001331541279796511,-0.0005326165119186044,-0.0003994623839389533
1670358941615404300,0.326404296875,-0.0011983871227130294,-0.0015978495357558131,-0.0003994623839389533
1670358941625327600,0.33632763671875,-0.0011983871227130294,-0.0005326165119186044,-0.0014646954368799925
1670358941635251000,0.3462509765625,-0.0001331541279796511,-0.0005326165119186044,-0.0014646954368799925
1670358941645174300,0.35617431640625,-0.0011983871227130294,-0.0005326165119186044,-0.0025299284607172012
1670358941655097600,0.36609765625,-0.0011983871227130294,0.0005326165119186044,-0.00359516148455441
1670358941665021000,0.37602099609375,-0.0011983871227130294,0.0005326165119186044,-0.0025299284607172012
1670358941674944300,0.3859443359375,-0.0011983871227130294,0.0005326165119186044,-0.0025299284607172012
1670358941684867600,0.39586767578125,-0.0011983871227130294,-0.0005326165119186044,-0.00359516148455441
1670358941694791000,0.405791015625,-0.0001331541279796511,-0.0005326165119186044,-0.0025299284607172012
1670358941704714200,0.41571435546875,-0.0011983871227130294,-0.0005326165119186044,-0.00359516148455441
1670358941714637600,0.425637451171875,-0.0011983871227130294,0.0005326165119186044,-0.004660394508391619
1670358941724561000,0.435560791015625,-0.0001331541279796511,0.0005326165119186044,-0.00359516148455441
1670358941734484200,0.445484130859375,-0.0001331541279796511,0.0005326165119186044,-0.0025299284607172012
1670358941744407600,0.455407470703125,-0.0011983871227130294,0.0005326165119186044,-0.0014646954368799925
1670358941754331000,0.465330810546875,-0.0011983871227130294,0.0005326165119186044,-0.0025299284607172012
1670358941764254200,0.475254150390625,-0.0001331541279796511,-0.0005326165119186044,-0.0025299284607172012
1670358941774177500,0.485177490234375,-0.0011983871227130294,0.0005326165119186044,-0.0014646954368799925
1670358941784100900,0.495100830078125,-0.0011983871227130294,0.0005326165119186044,-0.0003994623839389533
1670358941794024200,0.505024169921875,-0.0011983871227130294,0.0005326165119186044,-0.0003994623839389533
1670358941803947500,0.514947509765625,-0.0011983871227130294,-0.0005326165119186044,-0.0003994623839389533
1670358941813870800,0.524870849609375,-0.0011983871227130294,-0.0005326165119186044,-0.0014646954368799925
1670358941823794200,0.534794189453125,-0.0001331541279796511,0.0005326165119186044,-0.0025299284607172012
1670358941833717500,0.544717529296875,-0.0001331541279796511,0.0005326165119186044,-0.0014646954368799925
1670358941843640800,0.554640869140625,-0.0011983871227130294,-0.0005326165119186044,-0.0025299284607172012
1670358941853564200,0.564564208984375,-0.0011983871227130294,0.0005326165119186044,-0.00359516148455441
1670358941863487500,0.574487548828125,-0.0011983871227130294,0.0005326165119186044,-0.0014646954368799925
1670358941873410800,0.584410888671875,-0.0011983871227130294,-0.0005326165119186044,-0.0003994623839389533
1670358941883334100,0.594334228515625,-0.0011983871227130294,0.0005326165119186044,-0.0003994623839389533
1670358941893257500,0.604257568359375,-0.0011983871227130294,-0.0005326165119186044,-0.0003994623839389533
1670358941903180800,0.614180908203125,-0.0011983871227130294,-0.0005326165119186044,-0.0003994623839389533
1670358941913104100,0.624104248046875,-0.0011983871227130294,-0.0005326165119186044,-0.0014646954368799925
1670358941923027500,0.63402734375,-0.0011983871227130294,0.0005326165119186044,-0.0025299284607172012
1670358941932950800,0.64395068359375,-0.0011983871227130294,0.0005326165119186044,-0.00359516148455441
1670358941942874000,0.6538740234375,-0.0011983871227130294,0.0015978495357558131,-0.004660394508391619
1670358941952794000,0.663794189453125,-0.0011983871227130294,0.0015978495357558131,-0.005725627299398184
1670358941962714000,0.673714111328125,-0.0011983871227130294,0.0015978495357558131,-0.00359516148455441
1670358941972634600,0.683634521484375,-0.0011983871227130294,0.0005326165119186044,-0.0014646954368799925
1670358941982555600,0.6935556640625,-0.0011983871227130294,0.0005326165119186044,-0.0003994623839389533
1670358941992477200,0.703477294921875,-0.0011983871227130294,0.0005326165119186044,-0.0003994623839389533
1670358942002399200,0.713399169921875,-0.0011983871227130294,-0.0005326165119186044,-0.0014646954368799925
1670358942012322000,0.723322021484375,-0.0011983871227130294,-0.0005326165119186044,-0.0025299284607172012
1670358942022245400,0.733245361328125,-0.0011983871227130294,0.0005326165119186044,-0.00359516148455441
1670358942032169500,0.74316943359375,-0.0011983871227130294,0.0005326165119186044,-0.004660394508391619
1670358942042094000,0.753093994140625,-0.00226362026296556,0.0005326165119186044,-0.004660394508391619
1670358942052019200,0.763019287109375,-0.0011983871227130294,0.0005326165119186044,-0.00359516148455441
1670358942061944800,0.77294482421875,-0.0011983871227130294,-0.0015978495357558131,-0.0025299284607172012
1670358942071870700,0.78287060546875,-0.0011983871227130294,-0.0005326165119186044,-0.0003994623839389533
1670358942081796600,0.792796630859375,-0.0011983871227130294,-0.0005326165119186044,-0.0003994623839389533
1670358942091722800,0.80272265625,-0.0011983871227130294,-0.0005326165119186044,0.000665770610794425
1670358942101648100,0.812648193359375,-0.0011983871227130294,-0.0005326165119186044,0.000665770610794425
1670358942111571500,0.822571533203125,-0.0011983871227130294,0.0005326165119186044,0.0017310036346316338
1670358942121494800,0.832494873046875,-0.0011983871227130294,-0.0015978495357558131,0.000665770610794425
1670358942131418000,0.842418212890625,-0.00226362026296556,-0.0005326165119186044,0.000665770610794425
1670358942141341400,0.852341552734375,-0.00226362026296556,-0.0005326165119186044,0.0017310036346316338
1670358942151264800,0.8622646484375,-0.0011983871227130294,-0.0026630824431777,0.0027962366584688425
1670358942161188000,0.87218798828125,-0.0011983871227130294,-0.0015978495357558131,0.0027962366584688425
1670358942171111400,0.882111328125,-0.0011983871227130294,-0.0015978495357558131,0.0027962366584688425
1670358942181034500,0.892034423828125,-0.0011983871227130294,-0.0015978495357558131,0.0017310036346316338
1670358942190957800,0.901957763671875,-0.0011983871227130294,-0.0005326165119186044,0.0027962366584688425
1670358942200881200,0.911881103515625,-0.0011983871227130294,-0.0015978495357558131,0.0017310036346316338
1670358942210804500,0.921804443359375,-0.0001331541279796511,-0.0005326165119186044,0.000665770610794425
1670358942220727800,0.931727783203125,-0.0011983871227130294,-0.0005326165119186044,0.0017310036346316338
1670358942230651100,0.941651123046875,-0.0011983871227130294,-0.0005326165119186044,0.000665770610794425
1670358942240574200,0.95157421875,-0.0011983871227130294,-0.0015978495357558131,0.000665770610794425
1670358942250497500,0.96149755859375,-0.0011983871227130294,-0.0005326165119186044,0.000665770610794425
1670358942260420900,0.9714208984375,-0.0001331541279796511,-0.0005326165119186044,0.000665770610794425
1670358942270344200,0.98134423828125,-0.0011983871227130294,-0.0005326165119186044,-0.0003994623839389533
1670358942280267500,0.991267578125,-0.0011983871227130294,0.0005326165119186044,0.000665770610794425
1670358942290190600,1.001190673828125,-0.0011983871227130294,0.0005326165119186044,-0.0003994623839389533
1670358942300114000,1.011114013671875,-0.0011983871227130294,0.0005326165119186044,0.000665770610794425
1670358942310037200,1.021037353515625,-0.0011983871227130294,-0.0005326165119186044,0.0017310036346316338
1670358942319960600,1.030960693359375,-0.0011983871227130294,-0.0005326165119186044,0.0017310036346316338
1670358942329884000,1.0408837890625,-0.0011983871227130294,-0.0026630824431777,0.0027962366584688425
1670358942339807200,1.05080712890625,-0.0011983871227130294,-0.0015978495357558131,0.0027962366584688425
1670358942349730300,1.060730224609375,-0.0001331541279796511,-0.0005326165119186044,0.0017310036346316338
1670358942359653600,1.070653564453125,-0.0011983871227130294,-0.0005326165119186044,0.0017310036346316338
1670358942369577000,1.080576904296875,-0.0011983871227130294,-0.0005326165119186044,0.000665770610794425
1670358942379500300,1.090500244140625,-0.00226362026296556,-0.0005326165119186044,-0.0003994623839389533
1670358942389423600,1.100423583984375,-0.0011983871227130294,0.0005326165119186044,-0.0003994623839389533
1670358942399346700,1.1103466796875,-0.0011983871227130294,-0.0005326165119186044,0.000665770610794425
1670358942409270000,1.12027001953125,-0.0011983871227130294,-0.0005326165119186044,0.000665770610794425
1670358942419193300,1.130193359375,-0.0011983871227130294,-0.0015978495357558131,0.0017310036346316338
1670358942429116700,1.14011669921875,-0.0011983871227130294,-0.0005326165119186044,0.0017310036346316338
1670358942439040000,1.1500400390625,-0.0011983871227130294,-0.0005326165119186044,0.000665770610794425
1670358942448963300,1.15996337890625,-0.0001331541279796511,-0.0005326165119186044,-0.0003994623839389533
1670358942458886700,1.16988671875,-0.0011983871227130294,-0.0005326165119186044,0.000665770610794425
1670358942468810000,1.17981005859375,-0.0011983871227130294,-0.0005326165119186044,0.000665770610794425
1670358942478733300,1.1897333984375,-0.0011983871227130294,-0.0005326165119186044,-0.0003994623839389533
1670358942488656600,1.19965673828125,-0.0011983871227130294,-0.0005326165119186044,-0.0003994623839389533
1670358942498580000,1.209580078125,-0.0011983871227130294,-0.0005326165119186044,0.000665770610794425
1670358942508503300,1.21950341796875,-0.0011983871227130294,-0.0005326165119186044,0.000665770610794425
1670358942518426600,1.229426513671875,-0.0011983871227130294,-0.0005326165119186044,0.000665770610794425
1670358942528350000,1.239349853515625,-0.0011983871227130294,-0.0015978495357558131,0.000665770610794425
1670358942538273300,1.249273193359375,-0.0011983871227130294,-0.0005326165119186044,0.000665770610794425
1670358942548196600,1.259196533203125,-0.0011983871227130294,-0.0005326165119186044,-0.0003994623839389533
1670358942558120000,1.269119873046875,-0.0011983871227130294,-0.0005326165119186044,0.000665770610794425
1670358942568043300,1.279043212890625,-0.0001331541279796511,-0.0005326165119186044,0.000665770610794425
1670358942577966600,1.288966552734375,-0.0011983871227130294,0.0005326165119186044,-0.0003994623839389533
1670358942587890000,1.298889892578125,-0.0011983871227130294,-0.0005326165119186044,-0.0003994623839389533
1670358942597813200,1.308813232421875,-0.0011983871227130294,-0.0005326165119186044,0.0017310036346316338
1670358942607736600,1.318736572265625,-0.0011983871227130294,-0.0005326165119186044,0.0017310036346316338
1670358942617660000,1.328659912109375,-0.0001331541279796511,-0.0005326165119186044,0.0017310036346316338
1670358942627583200,1.338583251953125,-0.0011983871227130294,-0.0005326165119186044,0.000665770610794425
1670358942637506600,1.348506591796875,-0.0011983871227130294,-0.0005326165119186044,0.000665770610794425
1670358942647430000,1.358429931640625,-0.0001331541279796511,-0.0005326165119186044,0.000665770610794425
1670358942657353200,1.368353271484375,-0.0011983871227130294,-0.0005326165119186044,0.000665770610794425
1670358942667276500,1.378276611328125,-0.0011983871227130294,-0.0005326165119186044,0.000665770610794425
1670358942677200000,1.388199951171875,-0.0011983871227130294,-0.0005326165119186044,0.0017310036346316338
1670358942687123200,1.398123291015625,-0.0011983871227130294,-0.0005326165119186044,0.000665770610794425
1670358942697046500,1.408046630859375,-0.0011983871227130294,-0.0005326165119186044,0.000665770610794425
1670358942706969900,1.417969970703125,-0.0011983871227130294,-0.022902509197592735,0.008122402243316174
1670358942716893200,1.42789306640625,-0.0001331541279796511,0.0037283156998455524,-0.0003994623839389533
1670358942726816500,1.43781640625,-0.0011983871227130294,0.0079892473295331,-0.0014646954368799925
1670358942736739800,1.44773974609375,-0.0011983871227130294,0.0047935484908521175,-0.0014646954368799925
1670358942746663200,1.4576630859375,-0.0011983871227130294,-0.0005326165119186044,0.0017310036346316338
1670358942756586500,1.46758642578125,-0.0011983871227130294,-0.0005326165119186044,0.0017310036346316338
1670358942766509800,1.477509765625,-0.0011983871227130294,-0.0015978495357558131,0.000665770610794425
1670358942776433200,1.48743310546875,-0.0011983871227130294,-0.0037283156998455524,0.000665770610794425
1670358942786356500,1.4973564453125,-0.0011983871227130294,-0.0015978495357558131,0.000665770610794425
1670358942796279800,1.50727978515625,-0.0011983871227130294,0.0037283156998455524,0.0017310036346316338
1670358942806203400,1.517203369140625,-0.0001331541279796511,0.0005326165119186044,0.000665770610794425
1670358942816126700,1.527126708984375,-0.0011983871227130294,-0.0005326165119186044,0.000665770610794425
1670358942826050000,1.537050048828125,-0.0011983871227130294,-0.0005326165119186044,0.000665770610794425
1670358942835973400,1.546973388671875,-0.0011983871227130294,-0.0005326165119186044,0.000665770610794425
1670358942845896700,1.556896728515625,-0.0011983871227130294,-0.0005326165119186044,-0.0003994623839389533
1670358942855820000,1.566820068359375,-0.0011983871227130294,-0.0015978495357558131,-0.0003994623839389533
1670358942865743400,1.576743408203125,-0.0011983871227130294,-0.0005326165119186044,0.000665770610794425
1670358942875666700,1.586666748046875,-0.0001331541279796511,0.0005326165119186044,-0.0003994623839389533
1670358942885590000,1.596590087890625,-0.0011983871227130294,0.0005326165119186044,-0.0003994623839389533
1670358942895513300,1.606513427734375,-0.0011983871227130294,-0.0005326165119186044,-0.0003994623839389533
1670358942905436700,1.616436767578125,-0.0011983871227130294,-0.0005326165119186044,-0.0014646954368799925
1670358942915360000,1.626360107421875,-0.0011983871227130294,-0.0005326165119186044,-0.0003994623839389533
1670358942925283300,1.636283447265625,-0.0011983871227130294,-0.0005326165119186044,0.000665770610794425
1670358942935206700,1.64620654296875,-0.0001331541279796511,-0.0005326165119186044,-0.0003994623839389533
1670358942945130000,1.6561298828125,-0.0011983871227130294,-0.0005326165119186044,-0.0003994623839389533
1670358942955053300,1.66605322265625,-0.0011983871227130294,0.0005326165119186044,-0.0003994623839389533
1670358942964976600,1.6759765625,-0.0011983871227130294,0.0005326165119186044,-0.0014646954368799925
1670358942974900000,1.68589990234375,-0.0011983871227130294,0.0005326165119186044,-0.0014646954368799925
1670358942984823300,1.6958232421875,-0.0011983871227130294,0.0005326165119186044,-0.0014646954368799925
1670358942994746600,1.70574658203125,-0.0011983871227130294,0.0005326165119186044,-0.0014646954368799925
1670358943004670000,1.715669921875,-0.0011983871227130294,-0.0005326165119186044,0.000665770610794425
1670358943014593300,1.72559326171875,-0.0011983871227130294,-0.0005326165119186044,-0.0003994623839389533
1670358943024516600,1.7355166015625,-0.0011983871227130294,0.0005326165119186044,-0.0003994623839389533
1670358943034440000,1.74543994140625,-0.0001331541279796511,0.0005326165119186044,-0.0003994623839389533
1670358943044363300,1.75536328125,-0.0001331541279796511,-0.0005326165119186044,-0.0014646954368799925
1670358943054286600,1.76528662109375,-0.0011983871227130294,0.0015978495357558131,-0.0014646954368799925
1670358943064210000,1.7752099609375,-0.0011983871227130294,0.0015978495357558131,-0.0014646954368799925
1670358943074133200,1.78513330078125,-0.0011983871227130294,0.0005326165119186044,-0.0014646954368799925
1670358943084056600,1.795056640625,-0.0011983871227130294,0.0005326165119186044,-0.0014646954368799925
1670358943093980000,1.80497998046875,-0.0011983871227130294,0.0005326165119186044,-0.0003994623839389533
1670358943103903200,1.8149033203125,-0.0011983871227130294,0.0005326165119186044,-0.0003994623839389533
1670358943113826600,1.82482666015625,-0.0011983871227130294,-0.0005326165119186044,-0.0003994623839389533
1670358943123750000,1.83475,-0.0011983871227130294,-0.0015978495357558131,-0.0003994623839389533
1670358943133673200,1.844673095703125,-0.0011983871227130294,-0.0005326165119186044,0.000665770610794425
1670358943143596500,1.854596435546875,-0.0011983871227130294,0.0005326165119186044,-0.0003994623839389533
1670358943153519900,1.864519775390625,-0.0011983871227130294,0.0005326165119186044,-0.0003994623839389533
1670358943163443200,1.874443115234375,-0.00226362026296556,0.0005326165119186044,-0.0003994623839389533
1670358943173366500,1.884366455078125,-0.0011983871227130294,0.0005326165119186044,-0.0003994623839389533
1670358943183289900,1.894289794921875,-0.0011983871227130294,0.0005326165119186044,-0.0003994623839389533
1670358943193213200,1.904213134765625,-0.0011983871227130294,0.0005326165119186044,0.000665770610794425
1670358943203136500,1.914136474609375,-0.0011983871227130294,0.0005326165119186044,0.000665770610794425
1670358943213059800,1.924059814453125,-0.0011983871227130294,-0.0005326165119186044,0.000665770610794425
1670358943222983200,1.933983154296875,-0.0011983871227130294,-0.0005326165119186044,0.0017310036346316338
1670358943232906500,1.943906494140625,-0.0011983871227130294,-0.0015978495357558131,0.0017310036346316338
1670358943242829800,1.953829833984375,-0.0011983871227130294,-0.0015978495357558131,0.0017310036346316338
1670358943252753200,1.963753173828125,-0.0001331541279796511,-0.0015978495357558131,0.0017310036346316338
1670358943262676500,1.973676513671875,-0.0011983871227130294,-0.0005326165119186044,0.0027962366584688425
1670358943272599800,1.983599853515625,-0.0011983871227130294,-0.0015978495357558131,0.0027962366584688425
1670358943282523400,1.9935234375,-0.0011983871227130294,-0.0015978495357558131,0.0027962366584688425
1670358943292446700,2.00344677734375,-0.0011983871227130294,-0.0015978495357558131,0.000665770610794425
1670358943302370000,2.0133701171875,-0.0011983871227130294,-0.0005326165119186044,0.0017310036346316338
1670358943312293400,2.02329345703125,-0.0011983871227130294,-0.0015978495357558131,0.0017310036346316338
1670358943322216700,2.033216796875,-0.0011983871227130294,-0.0015978495357558131,0.0038614696823060513
1670358943332140000,2.04314013671875,-0.0011983871227130294,-0.0015978495357558131,0.0027962366584688425
1670358943342063400,2.0530634765625,-0.0011983871227130294,-0.0015978495357558131,0.0027962366584688425
1670358943351986700,2.062986572265625,-0.0011983871227130294,-0.0026630824431777,0.0038614696823060513
1670358943361910000,2.072909912109375,-0.0011983871227130294,-0.0015978495357558131,0.0038614696823060513
1670358943371833300,2.082833251953125,-0.0011983871227130294,-0.0015978495357558131,0.0038614696823060513
1670358943381756700,2.092756591796875,-0.00226362026296556,-0.0005326165119186044,0.0027962366584688425
1670358943391680000,2.102679931640625,-0.00226362026296556,0.0005326165119186044,0.0017310036346316338
1670358943401603300,2.112603271484375,-0.0011983871227130294,-0.0015978495357558131,0.000665770610794425
1670358943411526700,2.122526611328125,-0.0011983871227130294,-0.0015978495357558131,0.0017310036346316338
1670358943421450000,2.132449951171875,-0.0011983871227130294,-0.0005326165119186044,0.000665770610794425
1670358943431373300,2.142373291015625,-0.0011983871227130294,-0.0005326165119186044,0.0017310036346316338
1670358943441296600,2.152296630859375,-0.0011983871227130294,-0.0005326165119186044,0.000665770610794425
1670358943451220000,2.162219970703125,-0.00226362026296556,-0.0005326165119186044,0.000665770610794425
1670358943461143300,2.172143310546875,-0.0011983871227130294,-0.0005326165119186044,0.000665770610794425
1670358943471066600,2.182066650390625,-0.0011983871227130294,-0.0005326165119186044,-0.0003994623839389533
1670358943480990000,2.191989990234375,-0.0001331541279796511,-0.0005326165119186044,-0.0003994623839389533
1670358943490913300,2.201913330078125,-0.0011983871227130294,0.0005326165119186044,0.000665770610794425
1670358943500836600,2.211836669921875,-0.0011983871227130294,0.0005326165119186044,0.000665770610794425
1670358943510760000,2.221760009765625,-0.0011983871227130294,-0.0005326165119186044,0.000665770610794425
1670358943520683300,2.231683349609375,-0.0011983871227130294,-0.0005326165119186044,0.000665770610794425
1670358943530606600,2.241606689453125,-0.0011983871227130294,-0.0005326165119186044,0.000665770610794425
1670358943540530000,2.251530029296875,-0.00226362026296556,0.0005326165119186044,-0.0014646954368799925
1670358943550453200,2.261453369140625,-0.0011983871227130294,0.0005326165119186044,-0.0014646954368799925
1670358943560376600,2.27137646484375,-0.0011983871227130294,0.0005326165119186044,-0.0014646954368799925
1670358943570300000,2.2812998046875,-0.0011983871227130294,0.0005326165119186044,-0.0014646954368799925
1670358943580223200,2.29122314453125,-0.00226362026296556,-0.0005326165119186044,-0.0003994623839389533
1670358943590146600,2.301146484375,-0.0011983871227130294,-0.0005326165119186044,0.0017310036346316338
1670358943600070000,2.31106982421875,-0.0011983871227130294,-0.0005326165119186044,0.0017310036346316338
1670358943609993200,2.3209931640625,-0.0011983871227130294,-0.0005326165119186044,0.0017310036346316338
1670358943619916500,2.33091650390625,-0.0011983871227130294,-0.0005326165119186044,0.000665770610794425
1670358943629840000,2.34083984375,-0.0011983871227130294,-0.0005326165119186044,0.0017310036346316338
1670358943639763200,2.35076318359375,-0.0011983871227130294,-0.0015978495357558131,-0.0003994623839389533
1670358943649686500,2.3606865234375,-0.0011983871227130294,-0.0005326165119186044,-0.0003994623839389533
1670358943659609900,2.37060986328125,-0.0011983871227130294,-0.0005326165119186044,-0.0014646954368799925
1670358943669533200,2.380533203125,-0.0011983871227130294,0.0005326165119186044,-0.0003994623839389533
1670358943679456500,2.39045654296875,-0.00226362026296556,0.0005326165119186044,-0.0003994623839389533
1670358943689379800,2.4003798828125,-0.0011983871227130294,0.0079892473295331,0.000665770610794425
1670358943699303200,2.41030322265625,-0.0001331541279796511,-0.0047935484908521175,0.0027962366584688425
1670358943709226500,2.4202265625,-0.0011983871227130294,-0.0015978495357558131,0.0027962366584688425
1670358943719149800,2.43014990234375,-0.0011983871227130294,-0.0026630824431777,0.0017310036346316338
1670358943729073200,2.4400732421875,-0.0011983871227130294,-0.0005326165119186044,0.000665770610794425
1670358943738996500,2.44999658203125,-0.0011983871227130294,-0.0005326165119186044,-0.0003994623839389533
1670358943748919800,2.459919921875,-0.0011983871227130294,-0.0005326165119186044,-0.0003994623839389533
1670358943758843400,2.469843505859375,-0.0001331541279796511,-0.0005326165119186044,-0.0014646954368799925
1670358943768766700,2.4797666015625,-0.0001331541279796511,-0.0005326165119186044,-0.0014646954368799925
1670358943778690000,2.48968994140625,-0.0011983871227130294,-0.0005326165119186044,-0.0003994623839389533
1670358943788613400,2.49961328125,-0.0011983871227130294,-0.0005326165119186044,-0.0003994623839389533
1670358943798536700,2.50953662109375,-0.0001331541279796511,-0.0015978495357558131,0.000665770610794425
1670358943808460000,2.5194599609375,-0.0011983871227130294,-0.0015978495357558131,0.0017310036346316338
1670358943818383400,2.52938330078125,-0.0011983871227130294,-0.0015978495357558131,0.0017310036346316338
1670358943828306700,2.539306640625,-0.0011983871227130294,-0.0015978495357558131,0.0017310036346316338
1670358943838230000,2.54922998046875,-0.0011983871227130294,-0.0005326165119186044,0.0017310036346316338
1670358943848153300,2.5591533203125,-0.0001331541279796511,-0.0005326165119186044,0.000665770610794425
1670358943858076700,2.56907666015625,-0.0011983871227130294,-0.0005326165119186044,-0.0003994623839389533
1670358943868000000,2.579,-0.0011983871227130294,-0.0015978495357558131,0.000665770610794425
1670358943877923300,2.58892333984375,-0.0011983871227130294,-0.0005326165119186044,-0.0003994623839389533
1670358943887846700,2.5988466796875,-0.0011983871227130294,-0.0005326165119186044,0.0017310036346316338
1670358943897770000,2.60877001953125,-0.0011983871227130294,-0.0005326165119186044,0.000665770610794425
1670358943907693300,2.618693359375,-0.0011983871227130294,-0.0005326165119186044,0.000665770610794425
1670358943917616600,2.62861669921875,-0.0011983871227130294,-0.0005326165119186044,0.000665770610794425
1670358943927540000,2.6385400390625,-0.0011983871227130294,-0.0005326165119186044,-0.0003994623839389533
1670358943937463300,2.64846337890625,-0.0011983871227130294,-0.0005326165119186044,0.000665770610794425
1670358943947386600,2.65838671875,-0.0011983871227130294,-0.0015978495357558131,0.000665770610794425
1670358943957310000,2.66831005859375,-0.0011983871227130294,-0.0005326165119186044,0.000665770610794425
1670358943967233300,2.6782333984375,-0.0011983871227130294,-0.0015978495357558131,0.000665770610794425
1670358943977156600,2.688156494140625,-0.0011983871227130294,-0.0015978495357558131,0.0017310036346316338
1670358943987080000,2.698079833984375,-0.0011983871227130294,-0.0005326165119186044,0.0017310036346316338
1670358943997003300,2.708003173828125,-0.00226362026296556,-0.0005326165119186044,0.000665770610794425
1670358944006926600,2.717926513671875,-0.0011983871227130294,-0.0005326165119186044,0.000665770610794425
1670358944016850000,2.727849853515625,-0.00226362026296556,-0.0005326165119186044,0.000665770610794425
1670358944026773200,2.737773193359375,-0.0011983871227130294,0.0005326165119186044,0.000665770610794425
1670358944036696600,2.747696533203125,-0.00226362026296556,-0.0005326165119186044,-0.0003994623839389533
1670358944046620000,2.757619873046875,-0.0011983871227130294,-0.0005326165119186044,0.000665770610794425
1670358944056543200,2.767543212890625,-0.0011983871227130294,-0.0005326165119186044,0.000665770610794425
1670358944066466600,2.777466552734375,-0.0011983871227130294,-0.0005326165119186044,0.0017310036346316338
1670358944076390000,2.787389892578125,-0.0011983871227130294,-0.0005326165119186044,0.0017310036346316338
1670358944086313200,2.797313232421875,-0.0011983871227130294,-0.0005326165119186044,0.000665770610794425
1670358944096236500,2.807236572265625,-0.0011983871227130294,-0.0005326165119186044,-0.0003994623839389533
1670358944106159900,2.817159912109375,-0.00226362026296556,0.0005326165119186044,-0.0014646954368799925
1670358944116083200,2.827083251953125,-0.0011983871227130294,-0.0005326165119186044,-0.0003994623839389533
1670358944126006500,2.837006591796875,-0.00226362026296556,-0.0005326165119186044,0.000665770610794425
1670358944135929900,2.846929931640625,-0.00226362026296556,-0.0005326165119186044,0.000665770610794425
1670358944145853200,2.856853271484375,-0.0011983871227130294,-0.0005326165119186044,0.000665770610794425
1670358944155776500,2.866776611328125,-0.0011983871227130294,-0.0005326165119186044,0.000665770610794425
1670358944165699800,2.876699951171875,-0.0011983871227130294,-0.0005326165119186044,-0.0003994623839389533
1670358944175623200,2.886623046875,-0.0011983871227130294,0.0005326165119186044,-0.0014646954368799925
1670358944185546500,2.89654638671875,-0.0011983871227130294,0.0005326165119186044,-0.0014646954368799925
1670358944195469800,2.9064697265625,-0.00226362026296556,-0.0005326165119186044,-0.0003994623839389533
1670358944205393200,2.91639306640625,-0.0011983871227130294,0.0005326165119186044,-0.0003994623839389533
1670358944215316500,2.92631640625,-0.00226362026296556,0.0005326165119186044,0.000665770610794425
1670358944225239800,2.93623974609375,-0.0011983871227130294,-0.0005326165119186044,0.0017310036346316338
1670358944235163400,2.946163330078125,-0.0011983871227130294,-0.0005326165119186044,0.0017310036346316338
1670358944245086700,2.956086669921875,-0.0011983871227130294,-0.0005326165119186044,0.0017310036346316338
1670358944255010000,2.966010009765625,-0.0011983871227130294,-0.0005326165119186044,0.000665770610794425
1670358944264933400,2.975933349609375,-0.0011983871227130294,-0.0015978495357558131,0.000665770610794425
1670358944274856700,2.985856689453125,-0.0011983871227130294,-0.0005326165119186044,0.000665770610794425
1670358944284780000,2.995780029296875,-0.0001331541279796511,-0.0005326165119186044,0.000665770610794425
1670358944294703400,3.005703369140625,-0.0001331541279796511,-0.0005326165119186044,-0.0003994623839389533
1670358944304626700,3.015626708984375,-0.0011983871227130294,-0.0005326165119186044,-0.0003994623839389533
1670358944314550000,3.025550048828125,-0.0011983871227130294,-0.0005326165119186044,0.000665770610794425
1670358944324473300,3.035473388671875,-0.0011983871227130294,-0.0005326165119186044,0.0027962366584688425
1670358944334396700,3.045396728515625,-0.0011983871227130294,-0.0015978495357558131,0.0027962366584688425
1670358944344320000,3.055320068359375,-0.0011983871227130294,-0.0005326165119186044,0.0027962366584688425
1670358944354243300,3.065243408203125,-0.0011983871227130294,-0.0015978495357558131,0.0038614696823060513
1670358944364166700,3.075166748046875,-0.0011983871227130294,-0.0005326165119186044,0.0017310036346316338
1670358944374090000,3.085090087890625,-0.0011983871227130294,-0.0015978495357558131,0.000665770610794425
1670358944384013300,3.095013427734375,-0.0011983871227130294,-0.0005326165119186044,-0.0003994623839389533
1670358944393936600,3.1049365234375,-0.0011983871227130294,0.0005326165119186044,-0.0003994623839389533
1670358944403860000,3.11485986328125,-0.0011983871227130294,-0.0005326165119186044,0.000665770610794425
1670358944413783300,3.124783203125,-0.0011983871227130294,-0.0015978495357558131,0.0017310036346316338
1670358944423706600,3.13470654296875,-0.0011983871227130294,-0.0005326165119186044,0.000665770610794425
1670358944433630000,3.1446298828125,-0.0011983871227130294,-0.0005326165119186044,0.0017310036346316338
1670358944443553300,3.15455322265625,-0.0001331541279796511,-0.0015978495357558131,0.0027962366584688425
1670358944453476600,3.1644765625,-0.0011983871227130294,-0.0005326165119186044,0.0017310036346316338
1670358944463400000,3.17439990234375,-0.0011983871227130294,0.0005326165119186044,0.000665770610794425
1670358944473323300,3.1843232421875,-0.0011983871227130294,-0.0005326165119186044,0.000665770610794425
1670358944483246600,3.19424658203125,-0.0011983871227130294,-0.0005326165119186044,0.0017310036346316338
1670358944493170000,3.204169921875,-0.0011983871227130294,-0.0005326165119186044,0.000665770610794425
1670358944503093200,3.21409326171875,-0.00226362026296556,-0.0005326165119186044,0.000665770610794425
1670358944513016600,3.2240166015625,-0.0011983871227130294,-0.0005326165119186044,0.0017310036346316338
1670358944522940000,3.23393994140625,-0.0011983871227130294,-0.0015978495357558131,0.0017310036346316338
1670358944532863200,3.24386328125,-0.0011983871227130294,-0.0015978495357558131,0.0017310036346316338
1670358944542786600,3.25378662109375,-0.0011983871227130294,-0.0005326165119186044,0.0017310036346316338
1670358944552710000,3.2637099609375,-0.0011983871227130294,-0.0005326165119186044,0.000665770610794425
1670358944562633200,3.27363330078125,-0.0011983871227130294,-0.0015978495357558131,-0.0014646954368799925
1670358944572556500,3.283556640625,-0.0011983871227130294,-0.0005326165119186044,-0.0003994623839389533
1670358944582480000,3.29347998046875,-0.0011983871227130294,0.0005326165119186044,-0.0003994623839389533
1670358944592403200,3.3034033203125,-0.0011983871227130294,-0.0005326165119186044,0.000665770610794425
1670358944602326500,3.313326416015625,-0.0011983871227130294,-0.0005326165119186044,0.0017310036346316338
1670358944612249900,3.323249755859375,-0.0011983871227130294,-0.0005326165119186044,0.0017310036346316338
1670358944622173200,3.333173095703125,-0.0011983871227130294,-0.0005326165119186044,0.0017310036346316338
1670358944632096500,3.343096435546875,-0.0011983871227130294,0.018641578033566475,0.005991935729980469
1670358944642019800,3.353019775390625,-0.0011983871227130294,0.006924014538526535,0.0027962366584688425
1670358944651943200,3.362943115234375,-0.0001331541279796511,0.00585878174751997,0.0027962366584688425
1670358944661866500,3.372866455078125,-0.0011983871227130294,-0.0026630824431777,0.000665770610794425
1670358944671789800,3.382789794921875,-0.0011983871227130294,-0.010119713842868805,-0.0014646954368799925
1670358944681713200,3.392713134765625,-0.0001331541279796511,-0.00905448105186224,-0.0014646954368799925
1670358944691636500,3.402636474609375,-0.0011983871227130294,-0.006924014538526535,-0.0003994623839389533
1670358944701559800,3.412559814453125,-0.0011983871227130294,-0.0015978495357558131,0.000665770610794425
1670358944711483400,3.4224833984375,-0.0011983871227130294,-0.0015978495357558131,0.000665770610794425
1670358944721406700,3.43240673828125,-0.0011983871227130294,-0.0015978495357558131,0.000665770610794425
1670358944731330000,3.442330078125,-0.0011983871227130294,-0.0015978495357558131,0.000665770610794425
1670358944741253400,3.45225341796875,-0.0011983871227130294,-0.0015978495357558131,-0.0003994623839389533
1670358944751176700,3.4621767578125,-0.0011983871227130294,-0.0005326165119186044,0.000665770610794425
1670358944761100000,3.47210009765625,-0.0011983871227130294,-0.0005326165119186044,-0.0003994623839389533
1670358944771023400,3.4820234375,-0.0011983871227130294,-0.0005326165119186044,0.000665770610794425
1670358944780946700,3.49194677734375,-0.0011983871227130294,-0.0005326165119186044,0.000665770610794425
1670358944790870000,3.5018701171875,-0.0011983871227130294,-0.0015978495357558131,0.0017310036346316338
1670358944800793300,3.51179345703125,-0.00226362026296556,-0.0015978495357558131,0.0017310036346316338
1670358944810716700,3.521716552734375,-0.0011983871227130294,-0.0015978495357558131,0.0017310036346316338
1670358944820640000,3.531639892578125,-0.0011983871227130294,-0.0005326165119186044,0.000665770610794425
1670358944830563300,3.541563232421875,-0.0011983871227130294,-0.0005326165119186044,-0.0003994623839389533
1670358944840486700,3.551486572265625,-0.0011983871227130294,0.0005326165119186044,-0.0003994623839389533
1670358944850410000,3.561409912109375,-0.0011983871227130294,0.0005326165119186044,-0.0003994623839389533
1670358944860333300,3.571333251953125,-0.0011983871227130294,-0.0005326165119186044,0.000665770610794425
1670358944870256600,3.581256591796875,-0.0011983871227130294,0.0079892473295331,0.007057168986648321
1670358944880180000,3.591179931640625,-0.0011983871227130294,0.00585878174751997,0.005991935729980469
1670358944890103300,3.601103271484375,-0.0001331541279796511,0.0026630824431777,0.0038614696823060513
1670358944900026600,3.611026611328125,-0.0011983871227130294,-0.0026630824431777,-0.0014646954368799925
1670358944909950000,3.620949951171875,-0.0011983871227130294,-0.0047935484908521175,-0.00359516148455441
1670358944919873300,3.630873291015625,-0.0011983871227130294,-0.0047935484908521175,-0.00359516148455441
1670358944929796600,3.640796630859375,-0.0011983871227130294,-0.0037283156998455524,-0.0025299284607172012
1670358944939720000,3.650719970703125,-0.0011983871227130294,-0.0015978495357558131,-0.0014646954368799925
1670358944949643300,3.660643310546875,-0.0011983871227130294,-0.0015978495357558131,-0.0014646954368799925
1670358944959566600,3.670566650390625,-0.0011983871227130294,-0.0005326165119186044,0.000665770610794425
1670358944969490000,3.680489990234375,-0.0011983871227130294,-0.0005326165119186044,0.0017310036346316338
1670358944979413200,3.690413330078125,-0.0011983871227130294,-0.0015978495357558131,0.000665770610794425
1670358944989336600,3.700336669921875,-0.0011983871227130294,-0.0005326165119186044,0.000665770610794425
1670358944999260000,3.710260009765625,-0.0011983871227130294,-0.0005326165119186044,-0.0003994623839389533
1670358945009183200,3.720183349609375,-0.0011983871227130294,-0.0005326165119186044,0.000665770610794425
1670358945019106600,3.7301064453125,-0.0011983871227130294,-0.0005326165119186044,0.000665770610794425
1670358945029030000,3.74002978515625,-0.0011983871227130294,-0.0005326165119186044,0.000665770610794425
1670358945038953200,3.749953125,-0.00226362026296556,0.0047935484908521175,0.008122402243316174
1670358945048876500,3.75987646484375,-0.00226362026296556,0.0037283156998455524,0.009187635034322739
1670358945058799900,3.7697998046875,-0.0011983871227130294,0.0005326165119186044,0.004926702938973904
1670358945068723200,3.77972314453125,-0.0011983871227130294,-0.0015978495357558131,-0.0003994623839389533
1670358945078646500,3.789646484375,-0.0011983871227130294,-0.0015978495357558131,-0.00359516148455441
1670358945088569900,3.79956982421875,-0.0011983871227130294,-0.0005326165119186044,-0.00359516148455441
1670358945098493200,3.8094931640625,-0.0001331541279796511,-0.0015978495357558131,-0.00359516148455441
1670358945108416500,3.81941650390625,-0.0001331541279796511,-0.0015978495357558131,-0.0025299284607172012
1670358945118339800,3.82933984375,-0.0011983871227130294,-0.0015978495357558131,-0.0003994623839389533
1670358945128263200,3.83926318359375,-0.0011983871227130294,-0.0015978495357558131,0.000665770610794425
1670358945138186500,3.8491865234375,-0.0011983871227130294,-0.0015978495357558131,0.000665770610794425
1670358945148109800,3.85910986328125,-0.0011983871227130294,-0.0015978495357558131,0.000665770610794425
1670358945158033200,3.869033203125,-0.0011983871227130294,-0.0005326165119186044,-0.0003994623839389533
1670358945167956500,3.87895654296875,-0.0011983871227130294,-0.0005326165119186044,-0.0014646954368799925
1670358945177879800,3.8888798828125,-0.0011983871227130294,-0.0005326165119186044,-0.0003994623839389533
1670358945187803400,3.898803466796875,-0.0001331541279796511,-0.0005326165119186044,-0.0003994623839389533
1670358945197726700,3.908726806640625,-0.0011983871227130294,-0.0005326165119186044,0.0017310036346316338
1670358945207650000,3.918650146484375,-0.0011983871227130294,-0.0015978495357558131,0.0017310036346316338
1670358945217573400,3.928573486328125,-0.0011983871227130294,-0.0005326165119186044,0.0027962366584688425
1670358945227496700,3.93849658203125,-0.0011983871227130294,-0.0005326165119186044,0.0017310036346316338
1670358945237420000,3.948419921875,-0.0011983871227130294,-0.0005326165119186044,0.000665770610794425
1670358945247343400,3.95834326171875,-0.0001331541279796511,-0.0005326165119186044,-0.0003994623839389533
1670358945257266700,3.9682666015625,-0.0011983871227130294,-0.0005326165119186044,-0.0003994623839389533
1670358945267190000,3.97818994140625,-0.0011983871227130294,-0.0005326165119186044,-0.0003994623839389533
1670358945277113300,3.98811328125,-0.0011983871227130294,-0.0005326165119186044,0.000665770610794425
1670358945287036700,3.99803662109375,-0.0011983871227130294,-0.0005326165119186044,0.0017310036346316338
1670358945296960000,4.0079599609375,-0.0011983871227130294,-0.0005326165119186044,0.000665770610794425
1670358945306883300,4.01788330078125,-0.00226362026296556,-0.0005326165119186044,0.000665770610794425
1670358945316806700,4.027806640625,-0.0011983871227130294,-0.0005326165119186044,0.0017310036346316338
1670358945326730000,4.03772998046875,-0.0011983871227130294,-0.0005326165119186044,-0.0003994623839389533
1670358945336653300,4.0476533203125,-0.0011983871227130294,-0.0005326165119186044,-0.0003994623839389533
1670358945346576600,4.05757666015625,-0.0011983871227130294,0.0005326165119186044,-0.0014646954368799925
1670358945356500000,4.0675,-0.0011983871227130294,-0.0005326165119186044,-0.0003994623839389533
1670358945366423300,4.07742333984375,-0.0011983871227130294,-0.0015978495357558131,0.000665770610794425
1670358945376346600,4.0873466796875,-0.0011983871227130294,-0.0005326165119186044,0.0017310036346316338
1670358945386270000,4.09727001953125,-0.0011983871227130294,-0.0015978495357558131,0.0027962366584688425
1670358945396193300,4.107193359375,-0.0011983871227130294,-0.0005326165119186044,0.0038614696823060513
1670358945406116600,4.11711669921875,-0.0011983871227130294,-0.0015978495357558131,0.005991935729980469
1670358945416040000,4.1270400390625,-0.0011983871227130294,-0.0005326165119186044,0.0027962366584688425
1670358945425963300,4.13696337890625,-0.0011983871227130294,0.0005326165119186044,-0.0014646954368799925
1670358945435886600,4.146886474609375,-0.0011983871227130294,0.0015978495357558131,-0.0025299284607172012
1670358945445810000,4.156809814453125,-0.0011983871227130294,-0.0005326165119186044,-0.0025299284607172012
1670358945455733200,4.166733154296875,-0.0011983871227130294,-0.0015978495357558131,-0.0003994623839389533
1670358945465656600,4.176656494140625,-0.0011983871227130294,-0.0005326165119186044,0.000665770610794425
1670358945475580000,4.186579833984375,-0.0011983871227130294,-0.0015978495357558131,0.0017310036346316338
1670358945485503200,4.196503173828125,-0.00226362026296556,-0.0015978495357558131,-0.0003994623839389533
1670358945495426600,4.206426513671875,-0.0011983871227130294,-0.0005326165119186044,0.000665770610794425
1670358945505350000,4.216349853515625,-0.00226362026296556,-0.0015978495357558131,0.000665770610794425
1670358945515273200,4.226273193359375,-0.0011983871227130294,-0.0005326165119186044,-0.0014646954368799925
1670358945525196500,4.236196533203125,-0.0011983871227130294,-0.0005326165119186044,-0.0003994623839389533
1670358945535120000,4.246119873046875,-0.0011983871227130294,-0.0005326165119186044,-0.0003994623839389533
1670358945545043200,4.256043212890625,-0.0011983871227130294,-0.0005326165119186044,0.000665770610794425
1670358945554966500,4.265966552734375,-0.0001331541279796511,-0.0005326165119186044,0.0017310036346316338
1670358945564889900,4.275889892578125,-0.0011983871227130294,-0.0015978495357558131,0.0017310036346316338
1670358945574813200,4.285813232421875,-0.0011983871227130294,0.006924014538526535,0.008122402243316174
1670358945584736500,4.295736572265625,-0.0011983871227130294,0.00585878174751997,0.008122402243316174
1670358945594659800,4.305659912109375,-0.0011983871227130294,-0.0005326165119186044,0.0017310036346316338
1670358945604583200,4.315583251953125,-0.00226362026296556,-0.00585878174751997,-0.006790860556066036
1670358945614506500,4.325506591796875,-0.0011983871227130294,-0.0047935484908521175,-0.006790860556066036
1670358945624429800,4.335429931640625,-0.0011983871227130294,-0.0015978495357558131,-0.0025299284607172012
1670358945634353200,4.345353271484375,-0.0011983871227130294,0.0005326165119186044,-0.0014646954368799925
1670358945644276500,4.3552763671875,-0.0011983871227130294,-0.0005326165119186044,-0.0003994623839389533
1670358945654199800,4.36519970703125,-0.00226362026296556,-0.0005326165119186044,-0.0003994623839389533
1670358945664123400,4.375123291015625,-0.0011983871227130294,-0.0015978495357558131,0.000665770610794425
1670358945674046700,4.385046630859375,-0.0011983871227130294,-0.0015978495357558131,0.0017310036346316338
1670358945683970000,4.394969970703125,-0.0001331541279796511,-0.0005326165119186044,0.000665770610794425
1670358945693893400,4.404893310546875,-0.0011983871227130294,0.0005326165119186044,-0.0014646954368799925
1670358945703816700,4.414816650390625,-0.0011983871227130294,0.0005326165119186044,-0.0014646954368799925
1670358945713740000,4.424739990234375,-0.0011983871227130294,-0.0005326165119186044,-0.0003994623839389533
1670358945723663400,4.434663330078125,-0.0011983871227130294,-0.0005326165119186044,0.000665770610794425
1670358945733586700,4.444586669921875,-0.0011983871227130294,-0.0015978495357558131,0.000665770610794425
1670358945743510000,4.454510009765625,-0.0011983871227130294,-0.0005326165119186044,0.0017310036346316338
1670358945753433300,4.464433349609375,-0.0011983871227130294,-0.0015978495357558131,0.0017310036346316338
1670358945763356700,4.474356689453125,-0.0011983871227130294,-0.0015978495357558131,0.000665770610794425
1670358945773280000,4.484280029296875,-0.0011983871227130294,-0.0005326165119186044,-0.0003994623839389533
1670358945783203300,4.494203369140625,-0.00226362026296556,0.0005326165119186044,-0.0014646954368799925
1670358945793126700,4.504126708984375,-0.0011983871227130294,0.0005326165119186044,-0.0003994623839389533
1670358945803050000,4.514050048828125,-0.0011983871227130294,-0.0005326165119186044,-0.0003994623839389533
1670358945812973300,4.523973388671875,-0.00226362026296556,-0.0015978495357558131,0.0017310036346316338
1670358945822896600,4.533896728515625,-0.0011983871227130294,-0.0015978495357558131,0.0017310036346316338
1670358945832820000,4.543820068359375,-0.0011983871227130294,-0.0015978495357558131,0.0017310036346316338
1670358945842743300,4.553743408203125,-0.0011983871227130294,-0.0005326165119186044,0.0017310036346316338
1670358945852666600,4.56366650390625,-0.0011983871227130294,-0.0005326165119186044,0.000665770610794425
1670358945862590000,4.57358984375,-0.0011983871227130294,-0.0005326165119186044,-0.0003994623839389533
1670358945872513300,4.58351318359375,-0.0011983871227130294,0.0005326165119186044,-0.0014646954368799925
1670358945882436600,4.5934365234375,-0.0011983871227130294,0.0005326165119186044,-0.0003994623839389533
1670358945892360000,4.60335986328125,-0.0011983871227130294,-0.0005326165119186044,0.000665770610794425
1670358945902283300,4.613283203125,-0.0011983871227130294,-0.0005326165119186044,0.000665770610794425
1670358945912206600,4.62320654296875,-0.0011983871227130294,-0.0015978495357558131,0.0017310036346316338
1670358945922130000,4.6331298828125,-0.0011983871227130294,-0.0005326165119186044,0.0027962366584688425
1670358945932053200,4.64305322265625,-0.0011983871227130294,-0.0005326165119186044,0.0027962366584688425
1670358945941976600,4.6529765625,-0.00226362026296556,-0.010119713842868805,0.005991935729980469
1670358945951900000,4.66289990234375,-0.0011983871227130294,0.0026630824431777,0.0017310036346316338
1670358945961823200,4.6728232421875,-0.0011983871227130294,0.0026630824431777,-0.0014646954368799925
1670358945971746600,4.68274658203125,-0.0011983871227130294,0.0005326165119186044,-0.0025299284607172012
1670358945981670000,4.692669921875,-0.0011983871227130294,-0.0005326165119186044,-0.0014646954368799925
1670358945991593200,4.70259326171875,-0.0011983871227130294,-0.0005326165119186044,-0.0003994623839389533
1670358946001516500,4.7125166015625,-0.00226362026296556,-0.0005326165119186044,-0.0003994623839389533
1670358946011439900,4.72243994140625,-0.0011983871227130294,-0.0005326165119186044,0.000665770610794425
1670358946021363200,4.73236328125,-0.0001331541279796511,-0.0005326165119186044,0.000665770610794425
1670358946031286500,4.74228662109375,-0.00226362026296556,-0.0005326165119186044,0.0017310036346316338
1670358946041209900,4.7522099609375,-0.0011983871227130294,-0.0005326165119186044,0.0017310036346316338
1670358946051133200,4.76213330078125,-0.0011983871227130294,-0.0005326165119186044,0.000665770610794425
1670358946061056500,4.772056396484375,-0.0011983871227130294,-0.0005326165119186044,-0.0003994623839389533
1670358946070979800,4.781979736328125,-0.0011983871227130294,0.0005326165119186044,0.000665770610794425
1670358946080903200,4.791903076171875,-0.0011983871227130294,-0.0005326165119186044,0.000665770610794425
1670358946090826500,4.801826416015625,-0.0011983871227130294,-0.0005326165119186044,0.0017310036346316338
1670358946100749800,4.811749755859375,-0.0011983871227130294,-0.0005326165119186044,0.0027962366584688425
1670358946110673200,4.821673095703125,-0.0011983871227130294,-0.0005326165119186044,0.0027962366584688425
1670358946120596500,4.831596435546875,-0.0011983871227130294,-0.0005326165119186044,0.0017310036346316338
1670358946130519800,4.841519775390625,-0.0011983871227130294,-0.0005326165119186044,0.000665770610794425
1670358946140443400,4.851443359375,-0.0011983871227130294,0.0005326165119186044,-0.0003994623839389533
1670358946150366700,4.86136669921875,-0.0011983871227130294,0.0005326165119186044,-0.0003994623839389533
1670358946160290000,4.8712900390625,-0.0011983871227130294,-0.0005326165119186044,-0.0003994623839389533
1670358946170213400,4.88121337890625,-0.0011983871227130294,-0.0005326165119186044,-0.0014646954368799925
1670358946180136700,4.89113671875,-0.0011983871227130294,-0.0005326165119186044,-0.0003994623839389533
1670358946190060000,4.90106005859375,-0.0011983871227130294,-0.0005326165119186044,0.000665770610794425
1670358946199983400,4.9109833984375,-0.0011983871227130294,-0.0015978495357558131,0.000665770610794425
1670358946209906700,4.92090673828125,-0.0011983871227130294,-0.0015978495357558131,0.0017310036346316338
1670358946219830000,4.930830078125,-0.0011983871227130294,-0.0005326165119186044,0.000665770610794425
1670358946229753300,4.94075341796875,-0.0011983871227130294,-0.0005326165119186044,0.000665770610794425
1670358946239676700,4.9506767578125,-0.0011983871227130294,0.0005326165119186044,0.0017310036346316338
1670358946249600000,4.96060009765625,-0.0011983871227130294,0.0005326165119186044,0.000665770610794425
1670358946259523300,4.9705234375,-0.0011983871227130294,0.0037283156998455524,0.005991935729980469
1670358946269446700,4.98044677734375,-0.0011983871227130294,0.0037283156998455524,0.012383334338665009
1670358946279370000,4.990369873046875,-0.0011983871227130294,-0.0005326165119186044,0.0027962366584688425
1670358946289293300,5.000293212890625,-0.0011983871227130294,-0.0005326165119186044,-0.006790860556066036
1670358946299216600,5.010216552734375,-0.0011983871227130294,-0.0047935484908521175,-0.004660394508391619
1670358946309140000,5.020139892578125,-0.0011983871227130294,-0.0015978495357558131,-0.0025299284607172012
1670358946319063300,5.030063232421875,-0.0011983871227130294,-0.0005326165119186044,-0.0014646954368799925
1670358946328986600,5.039986572265625,-0.0011983871227130294,-0.0005326165119186044,-0.0014646954368799925
1670358946338910000,5.049909912109375,-0.0011983871227130294,-0.0005326165119186044,-0.0014646954368799925
1670358946348833300,5.059833251953125,-0.0011983871227130294,-0.0005326165119186044,-0.0003994623839389533
1670358946358756600,5.069756591796875,-0.0011983871227130294,-0.0015978495357558131,0.0017310036346316338
1670358946368680000,5.079679931640625,-0.0011983871227130294,-0.0005326165119186044,0.0017310036346316338
1670358946378603300,5.089603271484375,-0.00226362026296556,-0.0005326165119186044,0.000665770610794425
1670358946388527400,5.09952734375,-0.0011983871227130294,-0.0005326165119186044,-0.0003994623839389533
1670358946398451200,5.109451171875,-0.0011983871227130294,-0.0005326165119186044,-0.0003994623839389533
1670358946408374500,5.11937451171875,-0.0011983871227130294,0.0005326165119186044,-0.0003994623839389533
1670358946418297900,5.1292978515625,-0.0011983871227130294,-0.0005326165119186044,0.000665770610794425
1670358946428221200,5.13922119140625,-0.0011983871227130294,-0.0015978495357558131,0.000665770610794425
1670358946438144500,5.14914453125,-0.0011983871227130294,-0.0015978495357558131,0.0017310036346316338
1670358946448067800,5.15906787109375,-0.0011983871227130294,-0.0005326165119186044,0.000665770610794425
1670358946457991200,5.1689912109375,-0.0011983871227130294,-0.0015978495357558131,0.000665770610794425
1670358946467914500,5.17891455078125,-0.0011983871227130294,-0.0005326165119186044,-0.0003994623839389533
1670358946477837800,5.188837890625,-0.0011983871227130294,-0.0005326165119186044,-0.0003994623839389533
1670358946487761200,5.19876123046875,-0.0011983871227130294,-0.0005326165119186044,0.000665770610794425
1670358946497684500,5.2086845703125,-0.0011983871227130294,-0.0005326165119186044,0.000665770610794425
1670358946507607800,5.21860791015625,-0.0011983871227130294,-0.0005326165119186044,0.0017310036346316338
1670358946517531100,5.22853125,-0.0011983871227130294,-0.0015978495357558131,0.0017310036346316338
1670358946527454500,5.238454345703125,-0.0011983871227130294,-0.0005326165119186044,0.0017310036346316338
1670358946537377800,5.248377685546875,-0.0011983871227130294,-0.0015978495357558131,0.000665770610794425
1670358946547301000,5.258301025390625,-0.0011983871227130294,0.0005326165119186044,-0.0003994623839389533
1670358946557224400,5.268224365234375,-0.0001331541279796511,0.0005326165119186044,-0.0003994623839389533
1670358946567147800,5.278147705078125,-0.0011983871227130294,-0.0005326165119186044,-0.0003994623839389533
1670358946577071000,5.288071044921875,-0.00226362026296556,-0.0026630824431777,0.007057168986648321
1670358946586994400,5.297994384765625,-0.0011983871227130294,-0.0026630824431777,0.0038614696823060513
1670358946596917800,5.307917724609375,-0.0011983871227130294,0.0005326165119186044,0.0017310036346316338
1670358946606841000,5.317841064453125,-0.0011983871227130294,0.0015978495357558131,-0.0003994623839389533
1670358946616764400,5.327764404296875,-0.0011983871227130294,-0.0005326165119186044,-0.0025299284607172012
1670358946626687700,5.337687744140625,-0.0011983871227130294,-0.0005326165119186044,-0.0003994623839389533
1670358946636611000,5.347611083984375,-0.00226362026296556,-0.0005326165119186044,-0.0003994623839389533
1670358946646534400,5.357534423828125,-0.0001331541279796511,0.0005326165119186044,-0.0014646954368799925
1670358946656457700,5.367457763671875,-0.0011983871227130294,0.0005326165119186044,-0.0025299284607172012
1670358946666381000,5.377381103515625,-0.0011983871227130294,-0.0005326165119186044,-0.0014646954368799925
1670358946676304600,5.3873046875,-0.0011983871227130294,-0.0015978495357558131,0.000665770610794425
1670358946686228000,5.39722802734375,-0.0011983871227130294,-0.0005326165119186044,0.0027962366584688425
1670358946696151300,5.4071513671875,-0.0011983871227130294,-0.0005326165119186044,0.000665770610794425
1670358946706074600,5.41707470703125,-0.00226362026296556,-0.0005326165119186044,0.000665770610794425
1670358946715998000,5.426998046875,-0.0011983871227130294,-0.0005326165119186044,0.000665770610794425
1670358946725921300,5.43692138671875,-0.0011983871227130294,-0.0005326165119186044,0.000665770610794425
1670358946735844600,5.4468447265625,-0.0001331541279796511,-0.0005326165119186044,-0.0003994623839389533
1670358946745768000,5.456767822265625,-0.0001331541279796511,-0.0015978495357558131,-0.0003994623839389533
1670358946755691300,5.466691162109375,-0.0011983871227130294,-0.0005326165119186044,0.000665770610794425
1670358946765614600,5.476614501953125,-0.0011983871227130294,-0.0005326165119186044,0.000665770610794425
1670358946775538000,5.486537841796875,-0.00226362026296556,-0.0005326165119186044,0.0017310036346316338
1670358946785461200,5.496461181640625,-0.0011983871227130294,-0.0005326165119186044,0.0017310036346316338
1670358946795384600,5.506384521484375,-0.0011983871227130294,-0.0005326165119186044,0.0017310036346316338
1670358946805308000,5.516307861328125,-0.0001331541279796511,-0.0005326165119186044,0.000665770610794425
1670358946815231200,5.526231201171875,-0.0011983871227130294,-0.0005326165119186044,-0.0003994623839389533
1670358946825154600,5.536154541015625,-0.00226362026296556,-0.030359141528606415,0.009187635034322739
1670358946835078000,5.546077880859375,-0.00226362026296556,-0.01438064593821764,0.0027962366584688425
1670358946845001200,5.556001220703125,-0.0001331541279796511,-0.0005326165119186044,0.0038614696823060513
1670358946854924500,5.565924560546875,0.0009320789249613881,0.019706811755895615,-0.0025299284607172012
1670358946864848000,5.575847900390625,-0.0011983871227130294,0.01118494663387537,-0.00359516148455441
1670358946874771200,5.585771240234375,-0.0011983871227130294,0.0047935484908521175,-0.0025299284607172012
1670358946884694500,5.595694580078125,-0.0011983871227130294,0.0015978495357558131,-0.0003994623839389533
1670358946894617900,5.605617919921875,-0.0011983871227130294,0.0005326165119186044,-0.0003994623839389533
1670358946904541200,5.615541259765625,-0.0011983871227130294,0.0005326165119186044,0.000665770610794425
1670358946914464500,5.625464599609375,-0.0011983871227130294,-0.0005326165119186044,0.000665770610794425
1670358946924387800,5.635387939453125,-0.0011983871227130294,-0.0015978495357558131,0.0017310036346316338
1670358946934311200,5.645311279296875,-0.0011983871227130294,-0.0005326165119186044,0.0017310036346316338
1670358946944234500,5.655234375,-0.0011983871227130294,-0.0005326165119186044,0.000665770610794425
1670358946954157800,5.66515771484375,-0.0011983871227130294,-0.0005326165119186044,-0.0003994623839389533
1670358946964081200,5.6750810546875,-0.0011983871227130294,0.0005326165119186044,-0.0014646954368799925
1670358946974004500,5.68500439453125,-0.0011983871227130294,-0.0005326165119186044,-0.0014646954368799925
1670358946983927800,5.694927734375,-0.0011983871227130294,-0.0005326165119186044,0.000665770610794425
1670358946993851100,5.70485107421875,-0.0011983871227130294,-0.0005326165119186044,0.000665770610794425
1670358947003774500,5.7147744140625,-0.0011983871227130294,-0.0005326165119186044,0.0017310036346316338
1670358947013697800,5.72469775390625,-0.0011983871227130294,-0.0005326165119186044,0.0017310036346316338
1670358947023621000,5.73462109375,-0.0011983871227130294,-0.0005326165119186044,0.000665770610794425
1670358947033544400,5.74454443359375,-0.0001331541279796511,-0.0005326165119186044,0.000665770610794425
1670358947043467800,5.7544677734375,-0.0011983871227130294,-0.0005326165119186044,0.000665770610794425
1670358947053391000,5.76439111328125,-0.0011983871227130294,0.0005326165119186044,0.000665770610794425
1670358947063314400,5.774314453125,-0.0011983871227130294,-0.0005326165119186044,-0.0003994623839389533
1670358947073237800,5.78423779296875,-0.0011983871227130294,-0.0005326165119186044,0.000665770610794425
1670358947083161000,5.7941611328125,-0.0011983871227130294,-0.0005326165119186044,0.000665770610794425
1670358947093084400,5.80408447265625,-0.0011983871227130294,-0.0005326165119186044,0.000665770610794425
1670358947103007700,5.8140078125,-0.0011983871227130294,-0.0005326165119186044,0.000665770610794425
1670358947112931000,5.82393115234375,-0.0011983871227130294,-0.0005326165119186044,0.000665770610794425
1670358947122854400,5.8338544921875,-0.0011983871227130294,-0.0005326165119186044,0.000665770610794425
1670358947132777700,5.84377783203125,-0.0011983871227130294,0.0005326165119186044,-0.0003994623839389533
1670358947142701000,5.853701171875,-0.0011983871227130294,0.0005326165119186044,-0.0003994623839389533
1670358947152624600,5.863624755859375,-0.0011983871227130294,-0.0005326165119186044,-0.0003994623839389533
1670358947162548000,5.8735478515625,-0.0011983871227130294,-0.0005326165119186044,0.000665770610794425
1670358947172471300,5.88347119140625,-0.0011983871227130294,-0.0005326165119186044,0.000665770610794425
1670358947182394600,5.89339453125,-0.0011983871227130294,-0.0005326165119186044,0.000665770610794425
1670358947192318000,5.90331787109375,-0.0011983871227130294,-0.0005326165119186044,0.0017310036346316338
1670358947202241300,5.9132412109375,-0.0011983871227130294,-0.0005326165119186044,0.000665770610794425
1670358947212164600,5.92316455078125,-0.0011983871227130294,-0.0005326165119186044,0.000665770610794425
1670358947222088000,5.933087890625,-0.0011983871227130294,-0.0005326165119186044,0.0017310036346316338
1670358947232011300,5.94301123046875,-0.0011983871227130294,0.013315413147211075,0.01877473294734955
1670358947241934600,5.9529345703125,-0.0011983871227130294,0.0005326165119186044,0.005991935729980469
1670358947251858000,5.96285791015625,-0.0011983871227130294,0.0005326165119186044,0.0017310036346316338
1670358947261781200,5.97278125,-0.0011983871227130294,-0.00585878174751997,-0.005725627299398184
1670358947271704600,5.98270458984375,-0.0011983871227130294,-0.006924014538526535,-0.004660394508391619
1670358947281628000,5.9926279296875,-0.0011983871227130294,-0.0005326165119186044,-0.0025299284607172012
1670358947291551200,6.00255126953125,-0.0011983871227130294,-0.0005326165119186044,-0.0025299284607172012
1670358947301474600,6.012474609375,-0.0011983871227130294,-0.0005326165119186044,-0.0025299284607172012
1670358947311398000,6.02239794921875,-0.0011983871227130294,-0.0005326165119186044,-0.0014646954368799925
1670358947321321200,6.0323212890625,-0.0011983871227130294,-0.0015978495357558131,-0.0003994623839389533
1670358947331244500,6.04224462890625,-0.0011983871227130294,-0.0015978495357558131,0.0017310036346316338
1670358947341167900,6.05216796875,-0.0011983871227130294,-0.0015978495357558131,0.0027962366584688425
1670358947351091200,6.06209130859375,-0.0011983871227130294,-0.0005326165119186044,0.000665770610794425
1670358947361014500,6.0720146484375,-0.0011983871227130294,-0.0005326165119186044,-0.0003994623839389533
1670358947370937900,6.081937744140625,-0.0011983871227130294,-0.0005326165119186044,-0.0003994623839389533
1670358947380861200,6.091861083984375,-0.00226362026296556,-0.0005326165119186044,-0.0003994623839389533
1670358947390784500,6.101784423828125,-0.0011983871227130294,-0.0005326165119186044,0.000665770610794425
1670358947400707800,6.111707763671875,-0.0011983871227130294,-0.0015978495357558131,0.000665770610794425
1670358947410631200,6.121631103515625,-0.0011983871227130294,-0.0005326165119186044,0.0017310036346316338
1670358947420554500,6.131554443359375,-0.0011983871227130294,-0.0005326165119186044,0.0017310036346316338
1670358947430477800,6.141477783203125,-0.0011983871227130294,-0.0005326165119186044,0.000665770610794425
1670358947440401200,6.151401123046875,-0.0011983871227130294,-0.0005326165119186044,-0.0003994623839389533
1670358947450324500,6.161324462890625,-0.0011983871227130294,-0.0005326165119186044,-0.0014646954368799925
1670358947460247800,6.171247802734375,-0.0001331541279796511,-0.0005326165119186044,-0.0014646954368799925
1670358947470171100,6.181171142578125,-0.0011983871227130294,0.0005326165119186044,-0.0003994623839389533
1670358947480094500,6.191094482421875,-0.0011983871227130294,-0.0005326165119186044,0.0017310036346316338
1670358947490017800,6.201017822265625,-0.0011983871227130294,0.06657706201076508,0.01770949922502041
1670358947499941000,6.210941162109375,-0.00226362026296556,-0.022902509197592735,0.0027962366584688425
1670358947509864400,6.220864501953125,-0.0011983871227130294,-0.023967742919921875,-0.0025299284607172012
1670358947519787800,6.230787841796875,-0.0011983871227130294,-0.00905448105186224,-0.00359516148455441
1670358947529711400,6.24071142578125,-0.0011983871227130294,-0.0015978495357558131,-0.0014646954368799925
1670358947539634700,6.250634765625,-0.0011983871227130294,0.0005326165119186044,-0.0025299284607172012
1670358947549558000,6.26055810546875,-0.0011983871227130294,0.0005326165119186044,-0.0025299284607172012
1670358947559481300,6.2704814453125,-0.0011983871227130294,-0.0005326165119186044,-0.0025299284607172012
1670358947569404700,6.28040478515625,-0.0011983871227130294,-0.0005326165119186044,0.000665770610794425
1670358947579328300,6.290328369140625,-0.0011983871227130294,-0.0015978495357558131,0.004926702938973904
1670358947589251600,6.30025146484375,-0.0011983871227130294,-0.0015978495357558131,0.0038614696823060513
1670358947599175000,6.3101748046875,-0.0011983871227130294,-0.0015978495357558131,0.0017310036346316338
1670358947609098200,6.32009814453125,-0.0011983871227130294,-0.0005326165119186044,-0.0003994623839389533
1670358947619021800,6.330021728515625,-0.0011983871227130294,-0.0005326165119186044,-0.0003994623839389533
1670358947628945200,6.339945068359375,-0.0011983871227130294,0.0005326165119186044,-0.0025299284607172012
1670358947638868500,6.349868408203125,-0.0011983871227130294,-0.0005326165119186044,-0.0014646954368799925
1670358947648791800,6.359791748046875,-0.00226362026296556,-0.0005326165119186044,-0.0003994623839389533
1670358947658715100,6.369715087890625,-0.0011983871227130294,-0.0015978495357558131,0.0017310036346316338
1670358947668638700,6.379638671875,-0.0011983871227130294,-0.0005326165119186044,0.0017310036346316338
1670358947678562000,6.38956201171875,-0.0011983871227130294,-0.0015978495357558131,0.0027962366584688425
1670358947688485400,6.3994853515625,-0.0011983871227130294,-0.0005326165119186044,0.000665770610794425
1670358947698408700,6.40940869140625,-0.0011983871227130294,0.0005326165119186044,-0.0003994623839389533
1670358947708332300,6.419332275390625,-0.0001331541279796511,-0.0005326165119186044,-0.0003994623839389533
1670358947718255600,6.429255615234375,-0.0011983871227130294,0.0005326165119186044,-0.0003994623839389533
1670358947728179000,6.439178955078125,-0.0011983871227130294,-0.0005326165119186044,-0.0003994623839389533
1670358947738102300,6.449102294921875,-0.0011983871227130294,-0.0005326165119186044,-0.0003994623839389533
1670358947748025600,6.459025634765625,-0.0011983871227130294,-0.0015978495357558131,0.000665770610794425
1670358947757949200,6.46894921875,-0.0011983871227130294,-0.0005326165119186044,0.0017310036346316338
1670358947767872500,6.47887255859375,-0.0011983871227130294,0.0005326165119186044,0.000665770610794425
1670358947777795800,6.4887958984375,-0.0011983871227130294,0.0005326165119186044,-0.0003994623839389533
1670358947787719200,6.49871923828125,-0.0011983871227130294,-0.0005326165119186044,-0.0014646954368799925
1670358947797642800,6.508642822265625,-0.0011983871227130294,-0.0005326165119186044,-0.0014646954368799925
1670358947807566000,6.518566162109375,-0.0011983871227130294,-0.0005326165119186044,0.000665770610794425
1670358947817489400,6.528489501953125,-0.0011983871227130294,-0.0005326165119186044,0.0027962366584688425
1670358947827412700,6.538412841796875,-0.0011983871227130294,-0.0005326165119186044,0.0017310036346316338
1670358947837336000,6.548336181640625,-0.0011983871227130294,-0.0015978495357558131,0.0017310036346316338
1670358947847259600,6.558259765625,-0.0011983871227130294,-0.0005326165119186044,0.000665770610794425
1670358947857183000,6.568182861328125,-0.0011983871227130294,-0.0005326165119186044,-0.0003994623839389533
1670358947867106300,6.578106201171875,-0.0001331541279796511,-0.0005326165119186044,-0.0014646954368799925
1670358947877029600,6.588029541015625,-0.0011983871227130294,0.0005326165119186044,-0.0014646954368799925
1670358947886953000,6.597952880859375,-0.0011983871227130294,-0.0005326165119186044,-0.0014646954368799925
1670358947896876300,6.607876220703125,-0.0011983871227130294,0.0005326165119186044,-0.0003994623839389533
1670358947906799600,6.617799560546875,-0.0011983871227130294,-0.0005326165119186044,0.0017310036346316338
1670358947916723000,6.627722900390625,-0.0011983871227130294,-0.0015978495357558131,0.0017310036346316338
1670358947926646300,6.637646240234375,-0.0011983871227130294,-0.0015978495357558131,0.0017310036346316338
1670358947936569600,6.647569580078125,-0.0011983871227130294,-0.0005326165119186044,0.000665770610794425
1670358947946493000,6.657492919921875,-0.0011983871227130294,0.0005326165119186044,-0.0003994623839389533
1670358947956416300,6.667416259765625,-0.0011983871227130294,0.0005326165119186044,-0.0014646954368799925
1670358947966339600,6.677339599609375,-0.0011983871227130294,0.0005326165119186044,-0.0014646954368799925
1670358947976263000,6.687262939453125,-0.00226362026296556,-0.0005326165119186044,-0.0014646954368799925
1670358947986186200,6.697186279296875,-0.0011983871227130294,-0.0005326165119186044,0.000665770610794425
1670358947996109600,6.707109619140625,-0.00226362026296556,-0.0005326165119186044,0.000665770610794425
1670358948006033000,6.717032958984375,-0.0011983871227130294,-0.0015978495357558131,0.0017310036346316338
1670358948015956200,6.726956298828125,-0.0011983871227130294,-0.0015978495357558131,0.000665770610794425
1670358948025879600,6.736879638671875,-0.0011983871227130294,-0.0005326165119186044,-0.0003994623839389533
1670358948035803000,6.746802978515625,-0.0011983871227130294,0.0005326165119186044,-0.0003994623839389533
1670358948045726200,6.756726318359375,-0.0011983871227130294,0.0005326165119186044,-0.0003994623839389533
1670358948055649500,6.7666494140625,-0.0011983871227130294,0.0005326165119186044,-0.0003994623839389533
1670358948065572900,6.77657275390625,-0.0011983871227130294,-0.0005326165119186044,0.000665770610794425
1670358948075496200,6.78649609375,-0.0011983871227130294,-0.00905448105186224,0.004926702938973904
1670358948085419500,6.79641943359375,-0.00226362026296556,-0.010119713842868805,0.0038614696823060513
1670358948095342800,6.8063427734375,-0.0011983871227130294,0.0037283156998455524,0.0027962366584688425
1670358948105266200,6.81626611328125,-0.0011983871227130294,0.010119713842868805,-0.0003994623839389533
1670358948115189500,6.826189453125,-0.00226362026296556,0.0015978495357558131,-0.0025299284607172012
1670358948125112800,6.83611279296875,-0.0011983871227130294,0.0005326165119186044,-0.0025299284607172012
1670358948135036200,6.8460361328125,-0.0011983871227130294,0.0005326165119186044,-0.0014646954368799925
1670358948144959700,6.855959716796875,-0.0011983871227130294,0.0005326165119186044,-0.0014646954368799925
1670358948154883000,6.865883056640625,-0.0011983871227130294,0.0005326165119186044,-0.0003994623839389533
1670358948164806400,6.875806396484375,-0.0011983871227130294,-0.0005326165119186044,-0.0003994623839389533
1670358948174729700,6.885729736328125,-0.0011983871227130294,-0.0015978495357558131,0.0027962366584688425
1670358948184653000,6.895653076171875,-0.0011983871227130294,-0.0015978495357558131,0.0038614696823060513
1670358948194576400,6.905576416015625,-0.0011983871227130294,-0.0015978495357558131,0.0017310036346316338
1670358948204499700,6.915499755859375,-0.0011983871227130294,-0.0005326165119186044,0.000665770610794425
1670358948214423000,6.925423095703125,-0.0011983871227130294,0.0005326165119186044,-0.0003994623839389533
1670358948224346400,6.935346435546875,-0.0011983871227130294,-0.0005326165119186044,-0.0014646954368799925
1670358948234269700,6.945269775390625,-0.0011983871227130294,0.0005326165119186044,-0.0003994623839389533
1670358948244193000,6.955193115234375,-0.0011983871227130294,-0.0005326165119186044,-0.0003994623839389533
1670358948254116400,6.965116455078125,-0.0011983871227130294,-0.0005326165119186044,-0.0003994623839389533
1670358948264039700,6.975039794921875,-0.0011983871227130294,-0.0005326165119186044,0.000665770610794425
1670358948273963000,6.984962890625,-0.0011983871227130294,-0.0005326165119186044,0.000665770610794425
1670358948283886300,6.99488623046875,-0.0011983871227130294,-0.0005326165119186044,0.000665770610794425
1670358948293809700,7.0048095703125,-0.0011983871227130294,-0.0005326165119186044,0.000665770610794425
1670358948303733000,7.01473291015625,-0.0011983871227130294,-0.0005326165119186044,0.000665770610794425
1670358948313656300,7.02465625,-0.0011983871227130294,0.0005326165119186044,-0.0014646954368799925
1670358948323579600,7.03457958984375,-0.0011983871227130294,-0.0005326165119186044,-0.0014646954368799925
1670358948333503000,7.0445029296875,-0.0011983871227130294,-0.0005326165119186044,-0.0003994623839389533
1670358948343426300,7.05442626953125,-0.0011983871227130294,-0.0005326165119186044,0.000665770610794425
1670358948353349600,7.064349609375,-0.0001331541279796511,-0.0005326165119186044,0.000665770610794425
1670358948363273000,7.07427294921875,-0.0011983871227130294,-0.0005326165119186044,0.0017310036346316338
1670358948373196300,7.0841962890625,-0.0011983871227130294,-0.0005326165119186044,0.0017310036346316338
1670358948383119600,7.09411962890625,-0.0011983871227130294,-0.0005326165119186044,0.0017310036346316338
1670358948393043000,7.10404296875,-0.00226362026296556,-0.0005326165119186044,0.000665770610794425
1670358948402966300,7.11396630859375,-0.0011983871227130294,-0.0005326165119186044,0.000665770610794425
1670358948412889600,7.1238896484375,-0.0011983871227130294,-0.0005326165119186044,0.000665770610794425
1670358948422813000,7.13381298828125,-0.0011983871227130294,-0.0005326165119186044,0.000665770610794425
1670358948432736300,7.143736328125,-0.0011983871227130294,-0.0005326165119186044,0.000665770610794425
1670358948442659600,7.15365966796875,-0.0011983871227130294,-0.0005326165119186044,0.000665770610794425
1670358948452583000,7.1635830078125,-0.0011983871227130294,0.0005326165119186044,-0.0003994623839389533
1670358948462506200,7.17350634765625,-0.0011983871227130294,0.0005326165119186044,0.000665770610794425
1670358948472429600,7.1834296875,-0.00226362026296556,0.0005326165119186044,0.000665770610794425
1670358948482353000,7.193352783203125,-0.0011983871227130294,-0.0015978495357558131,0.0017310036346316338
1670358948492276200,7.203276123046875,-0.0011983871227130294,-0.0005326165119186044,0.0017310036346316338
1670358948502199600,7.213199462890625,-0.0011983871227130294,-0.0005326165119186044,0.0017310036346316338
1670358948512123000,7.223122802734375,-0.00226362026296556,-0.0005326165119186044,0.000665770610794425
1670358948522046200,7.233046142578125,-0.0011983871227130294,0.0005326165119186044,-0.0003994623839389533
1670358948531969500,7.242969482421875,-0.00226362026296556,-0.0005326165119186044,-0.0003994623839389533
1670358948541892900,7.252892822265625,-0.0011983871227130294,-0.0005326165119186044,-0.0003994623839389533
1670358948551816200,7.262816162109375,-0.0011983871227130294,-0.0005326165119186044,-0.0003994623839389533
1670358948561739500,7.272739501953125,-0.0011983871227130294,-0.0005326165119186044,0.000665770610794425
1670358948571662800,7.282662841796875,-0.0011983871227130294,-0.0005326165119186044,0.000665770610794425
1670358948581586200,7.292586181640625,-0.0011983871227130294,-0.0015978495357558131,0.000665770610794425
1670358948591509500,7.302509521484375,-0.0011983871227130294,-0.0005326165119186044,0.0017310036346316338
1670358948601432800,7.312432861328125,-0.0011983871227130294,-0.0015978495357558131,0.0017310036346316338
1670358948611356400,7.3223564453125,-0.0011983871227130294,-0.0005326165119186044,0.0017310036346316338
1670358948621279700,7.33227978515625,-0.0011983871227130294,-0.0005326165119186044,0.000665770610794425
1670358948631203000,7.342203125,-0.0001331541279796511,0.035685304552316666,-0.0014646954368799925
1670358948641126400,7.35212646484375,-0.0011983871227130294,-0.027163442224264145,0.004926702938973904
1670358948651050000,7.362050048828125,-0.0011983871227130294,-0.0026630824431777,0.0017310036346316338
1670358948660973300,7.371973388671875,-0.0011983871227130294,-0.0015978495357558131,0.000665770610794425
1670358948670896600,7.381896728515625,-0.0011983871227130294,-0.0005326165119186044,-0.0014646954368799925
1670358948680820000,7.391820068359375,-0.0011983871227130294,-0.0005326165119186044,-0.0003994623839389533
1670358948690743300,7.401743408203125,-0.0011983871227130294,-0.0005326165119186044,-0.0003994623839389533
1670358948700667000,7.4116669921875,-0.0011983871227130294,-0.0005326165119186044,-0.0003994623839389533
1670358948710590200,7.421590087890625,-0.0011983871227130294,-0.0015978495357558131,0.000665770610794425
1670358948720513500,7.431513427734375,-0.0011983871227130294,-0.0005326165119186044,0.000665770610794425
1670358948730436900,7.441436767578125,-0.0001331541279796511,-0.0015978495357558131,0.0017310036346316338
1670358948740360400,7.4513603515625,-0.0011983871227130294,-0.0005326165119186044,0.0017310036346316338
1670358948750283800,7.46128369140625,-0.0011983871227130294,-0.0005326165119186044,0.0017310036346316338
1670358948760207000,7.47120703125,-0.0011983871227130294,-0.0005326165119186044,0.0017310036346316338
1670358948770130400,7.48113037109375,-0.0011983871227130294,-0.0005326165119186044,0.000665770610794425
1670358948780054000,7.491053955078125,-0.0011983871227130294,-0.0005326165119186044,0.000665770610794425
1670358948789977300,7.500977294921875,-0.0011983871227130294,-0.0015978495357558131,0.000665770610794425
1670358948799900700,7.510900634765625,-0.0011983871227130294,-0.0005326165119186044,0.000665770610794425
1670358948809824000,7.520823974609375,-0.0011983871227130294,-0.0005326165119186044,0.0017310036346316338
1670358948819747300,7.530747314453125,-0.0011983871227130294,-0.0005326165119186044,-0.0003994623839389533
1670358948829671000,7.5406708984375,-0.0011983871227130294,-0.0005326165119186044,-0.0003994623839389533
1670358948839594200,7.55059423828125,-0.0011983871227130294,0.0005326165119186044,-0.0003994623839389533
1670358948849517600,7.560517578125,-0.0011983871227130294,-0.0005326165119186044,-0.0003994623839389533
1670358948859441000,7.57044091796875,-0.0011983871227130294,0.0005326165119186044,0.000665770610794425
1670358948869364500,7.580364501953125,-0.0011983871227130294,-0.0005326165119186044,0.000665770610794425
1670358948879287800,7.590287841796875,-0.0011983871227130294,-0.0015978495357558131,0.000665770610794425
1670358948889211100,7.600211181640625,-0.00226362026296556,-0.0015978495357558131,0.000665770610794425
1670358948899134500,7.610134521484375,-0.0011983871227130294,-0.0005326165119186044,0.000665770610794425
1670358948909057800,7.620057861328125,-0.0011983871227130294,-0.0005326165119186044,0.000665770610794425
1670358948918981400,7.6299814453125,-0.0011983871227130294,-0.0005326165119186044,0.0017310036346316338
1670358948928904700,7.63990478515625,-0.00226362026296556,0.0005326165119186044,0.000665770610794425
1670358948938828000,7.649828125,-0.0011983871227130294,-0.0015978495357558131,0.0017310036346316338
1670358948948751400,7.65975146484375,-0.0011983871227130294,-0.0005326165119186044,-0.0003994623839389533
1670358948958675000,7.669675048828125,-0.0011983871227130294,-0.0005326165119186044,0.000665770610794425
1670358948968598300,7.679598388671875,-0.0011983871227130294,-0.0005326165119186044,0.0017310036346316338
1670358948978521600,7.689521484375,-0.0011983871227130294,-0.0005326165119186044,0.0017310036346316338
1670358948988445000,7.69944482421875,-0.0011983871227130294,-0.0005326165119186044,0.000665770610794425
1670358948998368300,7.7093681640625,-0.0011983871227130294,-0.0005326165119186044,0.000665770610794425
1670358949008291600,7.71929150390625,-0.0011983871227130294,-0.0005326165119186044,0.000665770610794425
1670358949018215000,7.72921484375,-0.0011983871227130294,-0.0005326165119186044,0.000665770610794425
1670358949028138200,7.73913818359375,-0.0011983871227130294,-0.0005326165119186044,0.000665770610794425
1670358949038061600,7.7490615234375,-0.0011983871227130294,-0.0015978495357558131,0.0017310036346316338
1670358949047985000,7.75898486328125,-0.0011983871227130294,-0.0005326165119186044,0.000665770610794425
1670358949057908200,7.768908203125,-0.0011983871227130294,-0.0005326165119186044,0.0017310036346316338
1670358949067831600,7.77883154296875,-0.0011983871227130294,-0.0005326165119186044,0.000665770610794425
1670358949077755000,7.7887548828125,-0.0011983871227130294,-0.0005326165119186044,0.000665770610794425
1670358949087678200,7.79867822265625,-0.00226362026296556,0.0005326165119186044,0.000665770610794425
1670358949097601500,7.8086015625,-0.0011983871227130294,0.0005326165119186044,0.000665770610794425
1670358949107524900,7.81852490234375,-0.0011983871227130294,-0.0005326165119186044,0.000665770610794425
1670358949117448200,7.8284482421875,-0.0011983871227130294,-0.0015978495357558131,0.000665770610794425
1670358949127371800,7.838371826171875,-0.0011983871227130294,-0.0005326165119186044,0.0017310036346316338
1670358949137295000,7.848295166015625,-0.0011983871227130294,-0.0005326165119186044,0.0017310036346316338
1670358949147218400,7.858218505859375,-0.0011983871227130294,0.0005326165119186044,0.000665770610794425
1670358949157141800,7.868141845703125,-0.0011983871227130294,-0.0005326165119186044,0.0017310036346316338
1670358949167065000,7.878065185546875,-0.0011983871227130294,0.0005326165119186044,0.000665770610794425
1670358949176988400,7.887988525390625,-0.0011983871227130294,0.0005326165119186044,0.000665770610794425
1670358949186911700,7.897911865234375,-0.0011983871227130294,-0.0005326165119186044,0.000665770610794425
1670358949196835000,7.9078349609375,-0.0011983871227130294,-0.0005326165119186044,-0.0003994623839389533
1670358949206758400,7.91775830078125,-0.0011983871227130294,-0.0005326165119186044,0.000665770610794425
1670358949216681700,7.927681640625,-0.0011983871227130294,-0.0005326165119186044,0.000665770610794425
1670358949226605000,7.93760498046875,-0.0011983871227130294,-0.0005326165119186044,0.000665770610794425
1670358949236528400,7.9475283203125,-0.0011983871227130294,0.0005326165119186044,0.000665770610794425
1670358949246451700,7.95745166015625,-0.0011983871227130294,-0.0005326165119186044,0.000665770610794425
1670358949256375000,7.967375,-0.00226362026296556,-0.0005326165119186044,0.0017310036346316338
1670358949266298400,7.97729833984375,-0.0011983871227130294,-0.0005326165119186044,0.0017310036346316338
1670358949276221700,7.9872216796875,-0.0011983871227130294,-0.0015978495357558131,0.000665770610794425
1670358949286145000,7.99714501953125,-0.0011983871227130294,-0.0015978495357558131,0.0017310036346316338
1670358949296068400,8.007068359375,-0.0011983871227130294,-0.0005326165119186044,0.000665770610794425
1670358949305991700,8.01699169921875,-0.0011983871227130294,-0.0005326165119186044,0.0017310036346316338
1670358949315915000,8.0269150390625,-0.0011983871227130294,-0.0015978495357558131,0.0017310036346316338
1670358949325838300,8.03683837890625,-0.0011983871227130294,-0.0005326165119186044,0.0017310036346316338
1670358949335761700,8.04676171875,-0.0011983871227130294,-0.0005326165119186044,0.000665770610794425
1670358949345685000,8.05668505859375,-0.0011983871227130294,-0.0015978495357558131,0.0017310036346316338
1670358949355608300,8.0666083984375,-0.0011983871227130294,-0.0015978495357558131,0.0017310036346316338
1670358949365531600,8.07653173828125,-0.0011983871227130294,-0.0005326165119186044,0.0017310036346316338
1670358949375455000,8.086455078125,-0.0011983871227130294,-0.0005326165119186044,0.0017310036346316338
1670358949385378300,8.09637841796875,-0.0011983871227130294,-0.0015978495357558131,0.0017310036346316338
1670358949395301600,8.106301513671875,-0.0011983871227130294,-0.0015978495357558131,0.000665770610794425
1670358949405225000,8.116224853515625,-0.0011983871227130294,-0.0005326165119186044,0.000665770610794425
1670358949415148300,8.126148193359375,-0.0011983871227130294,-0.0015978495357558131,0.000665770610794425
1670358949425071600,8.136071533203125,-0.0011983871227130294,-0.0005326165119186044,0.000665770610794425
1670358949434995000,8.145994873046876,-0.0011983871227130294,-0.0005326165119186044,-0.0003994623839389533
1670358949444918300,8.155918212890626,-0.0011983871227130294,-0.0005326165119186044,0.000665770610794425
1670358949454841600,8.165841552734374,-0.0011983871227130294,-0.0005326165119186044,0.0017310036346316338
1670358949464765000,8.175764892578124,-0.0011983871227130294,-0.0005326165119186044,0.0017310036346316338
1670358949474688300,8.185688232421874,-0.0011983871227130294,-0.0015978495357558131,0.0017310036346316338
1670358949484611600,8.195611572265625,-0.0011983871227130294,-0.0015978495357558131,0.0017310036346316338
1670358949494535000,8.205534912109375,-0.0011983871227130294,-0.0015978495357558131,0.0017310036346316338
1670358949504458200,8.215458251953125,-0.0011983871227130294,-0.0005326165119186044,0.0017310036346316338
1670358949514381600,8.225381591796875,-0.0011983871227130294,-0.0015978495357558131,0.000665770610794425
1670358949524305000,8.235304931640625,-0.0011983871227130294,-0.0005326165119186044,0.0017310036346316338
1670358949534228200,8.245228271484375,-0.0011983871227130294,-0.0005326165119186044,0.000665770610794425
1670358949544151600,8.255151611328126,-0.0011983871227130294,-0.0015978495357558131,0.0017310036346316338
1670358949554075000,8.265074951171876,-0.0011983871227130294,-0.0015978495357558131,0.0038614696823060513
1670358949563998200,8.274998291015624,-0.0011983871227130294,-0.0015978495357558131,0.0038614696823060513
1670358949573921800,8.284921875,-0.0011983871227130294,-0.0005326165119186044,0.0027962366584688425
1670358949583845000,8.29484521484375,-0.0011983871227130294,-0.0005326165119186044,0.0017310036346316338
1670358949593768400,8.3047685546875,-0.0011983871227130294,-0.0005326165119186044,0.000665770610794425
1670358949603691800,8.31469189453125,-0.0011983871227130294,-0.0015978495357558131,0.000665770610794425
1670358949613615400,8.324615478515625,-0.0011983871227130294,-0.0005326165119186044,0.000665770610794425
1670358949623538700,8.33453857421875,-0.0011983871227130294,-0.0005326165119186044,0.000665770610794425
1670358949633462000,8.3444619140625,-0.0011983871227130294,-0.0015978495357558131,0.0017310036346316338
1670358949643385300,8.35438525390625,-0.0011983871227130294,-0.0015978495357558131,0.0027962366584688425
1670358949653308700,8.36430859375,-0.00226362026296556,-0.0005326165119186044,0.0027962366584688425
1670358949663232300,8.374232177734376,-0.0011983871227130294,-0.0015978495357558131,0.0027962366584688425
1670358949673155600,8.384155517578124,-0.0011983871227130294,-0.0015978495357558131,0.000665770610794425
1670358949683079000,8.394078857421874,-0.0011983871227130294,-0.0005326165119186044,-0.0003994623839389533
1670358949693002200,8.404002197265624,-0.0011983871227130294,-0.0005326165119186044,-0.0014646954368799925
1670358949702925800,8.41392578125,-0.0011983871227130294,0.0005326165119186044,-0.0003994623839389533
1670358949712849200,8.42384912109375,-0.0011983871227130294,-0.0005326165119186044,-0.0003994623839389533
1670358949722772500,8.4337724609375,-0.0011983871227130294,-0.0005326165119186044,0.000665770610794425
1670358949732695800,8.44369580078125,-0.0011983871227130294,-0.0005326165119186044,0.0017310036346316338
1670358949742619100,8.453619140625,-0.0011983871227130294,-0.0005326165119186044,0.000665770610794425
1670358949752542700,8.463542724609376,-0.0001331541279796511,-0.0005326165119186044,0.000665770610794425
1670358949762466000,8.473466064453126,-0.00226362026296556,-0.0005326165119186044,0.000665770610794425
1670358949772389400,8.483389404296876,-0.0011983871227130294,-0.0005326165119186044,0.000665770610794425
1670358949782312700,8.493312744140624,-0.0011983871227130294,0.0005326165119186044,-0.0003994623839389533
1670358949792236300,8.503236328125,-0.0011983871227130294,0.0005326165119186044,0.000665770610794425
1670358949802159600,8.51315966796875,-0.0011983871227130294,0.0005326165119186044,-0.0003994623839389533
1670358949812083000,8.5230830078125,-0.0011983871227130294,-0.0005326165119186044,-0.0003994623839389533
1670358949822006300,8.53300634765625,-0.0011983871227130294,0.0015978495357558131,-0.0014646954368799925
1670358949831929600,8.5429296875,-0.0011983871227130294,0.0005326165119186044,-0.0014646954368799925
1670358949841853200,8.552853271484375,-0.0011983871227130294,0.0015978495357558131,-0.0014646954368799925
1670358949851776500,8.562776611328125,-0.0011983871227130294,0.0015978495357558131,-0.0014646954368799925
1670358949861699800,8.572699951171876,-0.0011983871227130294,0.0005326165119186044,-0.0003994623839389533
1670358949871623200,8.582623046875,-0.0011983871227130294,0.0005326165119186044,-0.0014646954368799925
1670358949881546800,8.592546630859376,-0.0011983871227130294,0.0005326165119186044,-0.0014646954368799925
1670358949891470000,8.602469970703124,-0.0011983871227130294,0.0015978495357558131,-0.0025299284607172012
1670358949901393400,8.612393310546874,-0.0011983871227130294,0.0026630824431777,-0.00359516148455441
1670358949911316700,8.622316650390625,-0.0001331541279796511,0.0026630824431777,-0.004660394508391619
1670358949921240300,8.632240234375,-0.0011983871227130294,0.0047935484908521175,-0.006790860556066036
1670358949931163600,8.64216357421875,-0.00226362026296556,0.0026630824431777,-0.005725627299398184
1670358949941087000,8.6520869140625,-0.00226362026296556,0.0015978495357558131,-0.00359516148455441
1670358949951010300,8.66201025390625,-0.0011983871227130294,0.0037283156998455524,-0.0014646954368799925
1670358949960933600,8.67193359375,-0.00226362026296556,0.0005326165119186044,-0.0025299284607172012
1670358949970857200,8.681857177734376,-0.00226362026296556,0.0026630824431777,-0.0014646954368799925
1670358949980780500,8.691780517578126,-0.0011983871227130294,0.0015978495357558131,-0.00359516148455441
1670358949990703900,8.701703857421874,-0.0011983871227130294,0.0026630824431777,-0.0025299284607172012
1670358950000627200,8.711627197265624,-0.0011983871227130294,0.0037283156998455524,-0.004660394508391619
1670358950010550800,8.72155078125,-0.00226362026296556,0.0047935484908521175,-0.006790860556066036
1670358950020474000,8.73147412109375,-0.0011983871227130294,0.0037283156998455524,-0.007856093347072601
1670358950030397400,8.7413974609375,-0.0011983871227130294,0.0005326165119186044,-0.006790860556066036
1670358950040320800,8.75132080078125,-0.00226362026296556,0.0015978495357558131,-0.004660394508391619
1670358950050244000,8.761244140625,-0.0011983871227130294,0.0015978495357558131,-0.00359516148455441
1670358950060167400,8.77116748046875,-0.0011983871227130294,0.0005326165119186044,-0.0014646954368799925
1670358950070090800,8.7810908203125,-0.0011983871227130294,-0.0005326165119186044,-0.0003994623839389533
1670358950080014000,8.79101416015625,-0.0011983871227130294,0.0015978495357558131,-0.0014646954368799925
1670358950089937400,8.8009375,-0.0011983871227130294,0.0005326165119186044,-0.0014646954368799925
1670358950099860700,8.81086083984375,-0.0011983871227130294,0.0015978495357558131,-0.0025299284607172012
1670358950109784000,8.8207841796875,-0.0011983871227130294,0.0026630824431777,-0.00359516148455441
1670358950119707400,8.830707275390624,-0.00226362026296556,0.0026630824431777,-0.00359516148455441
1670358950129630700,8.840630615234375,-0.0011983871227130294,0.0026630824431777,-0.00359516148455441
1670358950139554000,8.850553955078125,-0.0011983871227130294,0.0026630824431777,-0.004660394508391619
1670358950149477400,8.860477294921875,-0.0011983871227130294,0.0015978495357558131,-0.0025299284607172012
1670358950159400700,8.870400634765625,-0.0011983871227130294,0.0015978495357558131,-0.0025299284607172012
1670358950169324000,8.880323974609375,-0.0011983871227130294,0.0015978495357558131,-0.00359516148455441
1670358950179247400,8.890247314453125,-0.00226362026296556,0.0026630824431777,-0.004660394508391619
1670358950189170700,8.900170654296875,-0.0011983871227130294,0.0005326165119186044,-0.0025299284607172012
1670358950199094000,8.910093994140626,-0.0001331541279796511,0.0005326165119186044,-0.0025299284607172012
1670358950209017300,8.920017333984376,-0.0011983871227130294,-0.0005326165119186044,-0.0025299284607172012
1670358950218940700,8.929940673828124,-0.0011983871227130294,-0.0015978495357558131,-0.0003994623839389533
1670358950228864000,8.939864013671874,-0.0011983871227130294,-0.0015978495357558131,0.0017310036346316338
1670358950238787300,8.949787353515624,-0.0011983871227130294,-0.0005326165119186044,0.0038614696823060513
1670358950248710700,8.959710693359375,-0.0011983871227130294,0.0005326165119186044,0.0027962366584688425
1670358950258634000,8.969634033203125,-0.0011983871227130294,0.0005326165119186044,0.000665770610794425
1670358950268557300,8.979557373046875,-0.0011983871227130294,0.0005326165119186044,-0.0003994623839389533
1670358950278480600,8.989480712890625,-0.0011983871227130294,0.0005326165119186044,-0.0014646954368799925
1670358950288404000,8.999404052734375,-0.0011983871227130294,0.0005326165119186044,-0.0025299284607172012
1670358950298327300,9.009327392578125,-0.0011983871227130294,0.0005326165119186044,-0.0025299284607172012
1670358950308250600,9.019250732421876,-0.0011983871227130294,-0.0005326165119186044,0.000665770610794425
1670358950318174000,9.029174072265626,-0.0011983871227130294,-0.0015978495357558131,0.0017310036346316338
1670358950328097300,9.03909716796875,-0.0011983871227130294,-0.0005326165119186044,0.0027962366584688425
1670358950338020600,9.0490205078125,-0.0011983871227130294,-0.0015978495357558131,0.0027962366584688425
1670358950347944000,9.05894384765625,-0.0011983871227130294,-0.0005326165119186044,0.000665770610794425
1670358950357867300,9.0688671875,-0.0001331541279796511,0.0005326165119186044,-0.0003994623839389533
1670358950367790600,9.07879052734375,-0.0011983871227130294,0.0005326165119186044,-0.0003994623839389533
1670358950377714000,9.0887138671875,-0.0011983871227130294,0.0005326165119186044,0.000665770610794425
1670358950387637500,9.098637451171875,-0.00226362026296556,0.0005326165119186044,0.000665770610794425
1670358950397560800,9.108560791015625,-0.0011983871227130294,-0.0005326165119186044,0.0017310036346316338
1670358950407484200,9.118484130859375,-0.0011983871227130294,-0.0005326165119186044,0.0017310036346316338
1670358950417407500,9.128407470703126,-0.0011983871227130294,-0.0005326165119186044,0.000665770610794425
1670358950427330800,9.138330810546876,-0.0011983871227130294,-0.0005326165119186044,0.000665770610794425
1670358950437254100,9.148254150390626,-0.0011983871227130294,-0.0005326165119186044,-0.0003994623839389533
1670358950447177500,9.158177490234374,-0.00226362026296556,-0.0005326165119186044,-0.0014646954368799925
1670358950457100800,9.168100830078124,-0.0011983871227130294,-0.0005326165119186044,-0.0014646954368799925
1670358950467024100,9.178024169921875,-0.0011983871227130294,-0.0005326165119186044,-0.0003994623839389533
1670358950476947500,9.187947509765625,-0.0011983871227130294,-0.0005326165119186044,0.000665770610794425
1670358950486870800,9.197870849609375,-0.00226362026296556,-0.0005326165119186044,0.0017310036346316338
1670358950496794000,9.207794189453125,-0.0011983871227130294,-0.0015978495357558131,0.0027962366584688425
1670358950506717400,9.217717529296875,-0.0011983871227130294,-0.0005326165119186044,0.0017310036346316338
1670358950516640800,9.227640869140625,-0.0011983871227130294,-0.0005326165119186044,0.000665770610794425
1670358950526564000,9.237564208984375,-0.0001331541279796511,-0.0015978495357558131,0.000665770610794425
1670358950536487400,9.2474873046875,-0.0011983871227130294,-0.0026630824431777,0.0038614696823060513
1670358950546411000,9.257410888671876,-0.0011983871227130294,-0.0037283156998455524,0.008122402243316174
1670358950556334300,9.267334228515624,-0.0011983871227130294,-0.00585878174751997,0.014513799920678139
1670358950566257700,9.277257568359374,-0.0011983871227130294,-0.0047935484908521175,0.01664426550269127
1670358950576181000,9.287180908203124,-0.0011983871227130294,-0.0026630824431777,0.012383334338665009
1670358950586104600,9.2971044921875,-0.0011983871227130294,-0.0015978495357558131,0.004926702938973904
1670358950596028000,9.30702783203125,-0.0011983871227130294,0.0005326165119186044,-0.0003994623839389533
1670358950605951200,9.316951171875,-0.0011983871227130294,0.0005326165119186044,-0.00359516148455441
1670358950615874600,9.32687451171875,-0.0011983871227130294,0.0005326165119186044,-0.00359516148455441
1670358950625798000,9.3367978515625,-0.0011983871227130294,0.0005326165119186044,-0.0003994623839389533
1670358950635721500,9.346721435546876,-0.0011983871227130294,-0.0047935484908521175,0.007057168986648321
1670358950645644800,9.356644775390626,-0.0001331541279796511,-0.006924014538526535,0.014513799920678139
1670358950655568100,9.366568115234376,-0.0011983871227130294,-0.0079892473295331,0.02197043038904667
1670358950665491500,9.376491455078124,-0.00226362026296556,-0.0079892473295331,0.02197043038904667
1670358950675415000,9.3864150390625,-0.0011983871227130294,-0.006924014538526535,0.01877473294734955
1670358950685338400,9.39633837890625,-0.0011983871227130294,-0.0047935484908521175,0.011318100616335869
1670358950695261700,9.40626171875,-0.0011983871227130294,-0.0026630824431777,0.007057168986648321
1670358950705185000,9.41618505859375,-0.0011983871227130294,-0.0026630824431777,0.0038614696823060513
1670358950715108400,9.4261083984375,-0.0011983871227130294,-0.0026630824431777,0.0038614696823060513
1670358950725032000,9.436031982421875,-0.00226362026296556,-0.0026630824431777,0.005991935729980469
1670358950734955300,9.445955322265625,-0.0011983871227130294,-0.0037283156998455524,0.009187635034322739
1670358950744878600,9.455878662109376,-0.0011983871227130294,-0.0047935484908521175,0.011318100616335869
1670358950754802000,9.465802001953126,-0.0011983871227130294,-0.0047935484908521175,0.013448567129671574
1670358950764725500,9.4757255859375,-0.0011983871227130294,-0.00585878174751997,0.013448567129671574
1670358950774648800,9.48564892578125,-0.0011983871227130294,-0.00585878174751997,0.013448567129671574
1670358950784572200,9.495572265625,-0.0011983871227130294,-0.0047935484908521175,0.013448567129671574
1670358950794495500,9.50549560546875,-0.0011983871227130294,-0.0047935484908521175,0.012383334338665009
1670358950804418800,9.515418701171875,-0.0001331541279796511,-0.0037283156998455524,0.011318100616335869
1670358950814342400,9.52534228515625,-0.0011983871227130294,-0.0047935484908521175,0.011318100616335869
1670358950824265700,9.535265625,-0.0011983871227130294,-0.0037283156998455524,0.010252867825329304
1670358950834189000,9.54518896484375,-0.0011983871227130294,-0.0037283156998455524,0.010252867825329304
1670358950844112400,9.5551123046875,-0.0011983871227130294,-0.0047935484908521175,0.010252867825329304
1670358950854036000,9.565035888671876,-0.0011983871227130294,-0.0047935484908521175,0.010252867825329304
1670358950863959300,9.574959228515626,-0.0011983871227130294,-0.0037283156998455524,0.008122402243316174
1670358950873882600,9.584882568359374,-0.0011983871227130294,-0.0037283156998455524,0.008122402243316174
1670358950883806000,9.594805908203124,-0.0011983871227130294,-0.0037283156998455524,0.007057168986648321
1670358950893729500,9.6047294921875,-0.0011983871227130294,-0.0026630824431777,0.005991935729980469
1670358950903652900,9.61465283203125,-0.0001331541279796511,-0.0026630824431777,0.004926702938973904
1670358950913576200,9.624576171875,-0.00226362026296556,-0.0026630824431777,0.004926702938973904
1670358950923499500,9.63449951171875,-0.0011983871227130294,-0.0026630824431777,0.005991935729980469
1670358950933422800,9.6444228515625,-0.0011983871227130294,-0.0026630824431777,0.005991935729980469
1670358950943346400,9.654346435546875,-0.0011983871227130294,-0.0026630824431777,0.004926702938973904
1670358950953269800,9.664269775390625,-0.0011983871227130294,-0.0015978495357558131,0.0038614696823060513
1670358950963193000,9.674193115234376,-0.0011983871227130294,-0.0015978495357558131,0.0038614696823060513
1670358950973116400,9.684116455078126,-0.0011983871227130294,-0.0015978495357558131,0.0027962366584688425
1670358950983040000,9.6940400390625,-0.0011983871227130294,-0.0015978495357558131,0.0027962366584688425
1670358950992963300,9.70396337890625,-0.0011983871227130294,-0.0015978495357558131,0.0017310036346316338
1670358951002886700,9.71388671875,-0.00226362026296556,-0.0005326165119186044,0.0027962366584688425
1670358951012810000,9.72381005859375,-0.0011983871227130294,-0.0015978495357558131,0.0038614696823060513
1670358951022733300,9.7337333984375,-0.0011983871227130294,-0.0015978495357558131,0.004926702938973904
1670358951032656600,9.74365673828125,-0.00226362026296556,-0.0015978495357558131,0.004926702938973904
1670358951042580000,9.753580078125,-0.0011983871227130294,-0.0015978495357558131,0.0027962366584688425
1670358951052503300,9.76350341796875,-0.0011983871227130294,-0.0005326165119186044,0.0017310036346316338
1670358951062427000,9.773427001953126,-0.0011983871227130294,-0.0005326165119186044,-0.0003994623839389533
1670358951072350200,9.78335009765625,-0.0011983871227130294,-0.0005326165119186044,-0.0014646954368799925
1670358951082273500,9.7932734375,-0.00226362026296556,0.0005326165119186044,-0.0014646954368799925
1670358951092196900,9.80319677734375,-0.0011983871227130294,-0.0005326165119186044,0.000665770610794425
1670358951102120200,9.8131201171875,-0.0011983871227130294,-0.0005326165119186044,0.000665770610794425
1670358951112043500,9.82304345703125,-0.0011983871227130294,-0.0005326165119186044,0.0017310036346316338
1670358951121966800,9.832966796875,-0.0011983871227130294,-0.0005326165119186044,0.000665770610794425
1670358951131890200,9.84289013671875,-0.0011983871227130294,0.0005326165119186044,-0.0014646954368799925
1670358951141813500,9.8528134765625,-0.0001331541279796511,0.0015978495357558131,-0.00359516148455441
1670358951151736800,9.86273681640625,-0.0001331541279796511,0.0026630824431777,-0.004660394508391619
1670358951161660200,9.87266015625,-0.0011983871227130294,0.0015978495357558131,-0.005725627299398184
1670358951171583500,9.88258349609375,-0.0011983871227130294,0.0026630824431777,-0.005725627299398184
1670358951181506800,9.8925068359375,-0.0011983871227130294,0.0015978495357558131,-0.005725627299398184
1670358951191430100,9.90243017578125,-0.0011983871227130294,0.0015978495357558131,-0.005725627299398184
1670358951201353500,9.912353515625,-0.0011983871227130294,0.0015978495357558131,-0.008921326138079166
1670358951211276800,9.92227685546875,-0.0011983871227130294,0.0037283156998455524,-0.009986559860408306
1670358951221200100,9.9322001953125,-0.0001331541279796511,0.0037283156998455524,-0.008921326138079166
1670358951231123500,9.94212353515625,-0.0011983871227130294,0.0037283156998455524,-0.009986559860408306
1670358951241046800,9.952046875,-0.0011983871227130294,0.0037283156998455524,-0.014247491955757141
1670358951250970000,9.96197021484375,-0.0011983871227130294,0.0047935484908521175,-0.013182258233428001
1670358951260893400,9.9718935546875,-0.0011983871227130294,0.0037283156998455524,-0.013182258233428001
1670358951270816800,9.981816650390625,-0.0011983871227130294,0.0037283156998455524,-0.011051792651414871
1670358951280740000,9.991739990234375,-0.0011983871227130294,0.0037283156998455524,-0.009986559860408306
1670358951290663400,10.001663330078125,-0.0011983871227130294,0.0026630824431777,-0.009986559860408306
1670358951300586800,10.011586669921876,-0.0011983871227130294,0.0026630824431777,-0.009986559860408306
1670358951310510000,10.021510009765626,-0.0011983871227130294,0.0026630824431777,-0.008921326138079166
1670358951320433400,10.031433349609374,-0.00226362026296556,0.0026630824431777,-0.006790860556066036
1670358951330356700,10.041356689453124,-0.0001331541279796511,0.0026630824431777,-0.008921326138079166
1670358951340280000,10.051280029296874,-0.0011983871227130294,0.0037283156998455524,-0.009986559860408306
1670358951350203400,10.061203369140625,-0.0011983871227130294,0.0037283156998455524,-0.011051792651414871
1670358951360126700,10.071126708984375,-0.0011983871227130294,0.0047935484908521175,-0.013182258233428001
1670358951370050000,10.081050048828125,-0.0011983871227130294,0.0037283156998455524,-0.013182258233428001
1670358951379973400,10.090973388671875,-0.00226362026296556,0.0037283156998455524,-0.012117025442421436
1670358951389896700,10.100896728515625,-0.00226362026296556,0.0037283156998455524,-0.009986559860408306
1670358951399820000,10.110820068359375,-0.0011983871227130294,0.0005326165119186044,-0.006790860556066036
1670358951409743400,10.120743408203126,-0.0011983871227130294,0.0015978495357558131,-0.005725627299398184
1670358951419666700,10.130666748046876,-0.00226362026296556,0.0005326165119186044,-0.0025299284607172012
1670358951429590000,10.140590087890626,-0.0011983871227130294,-0.0005326165119186044,-0.0025299284607172012
1670358951439513300,10.150513427734374,-0.0011983871227130294,-0.0005326165119186044,-0.0025299284607172012
1670358951449436700,10.160436767578124,-0.0011983871227130294,0.0005326165119186044,-0.00359516148455441
1670358951459360300,10.1703603515625,-0.0011983871227130294,0.0015978495357558131,-0.00359516148455441
1670358951469283600,10.18028369140625,-0.0011983871227130294,0.0005326165119186044,-0.0025299284607172012
1670358951479207000,10.19020703125,-0.0011983871227130294,-0.0005326165119186044,-0.0025299284607172012
1670358951489130200,10.200130126953125,-0.0011983871227130294,0.0005326165119186044,-0.0014646954368799925
1670358951499053600,10.210053466796875,-0.0011983871227130294,0.0005326165119186044,-0.0014646954368799925
1670358951508977200,10.21997705078125,-0.0011983871227130294,-0.0005326165119186044,-0.0025299284607172012
1670358951518900500,10.229900390625,-0.0011983871227130294,-0.0005326165119186044,-0.0025299284607172012
1670358951528823800,10.23982373046875,-0.0011983871227130294,0.0005326165119186044,-0.0014646954368799925
1670358951538747100,10.2497470703125,-0.0011983871227130294,-0.0005326165119186044,-0.0003994623839389533
1670358951548670700,10.259670654296874,-0.0011983871227130294,-0.0015978495357558131,0.000665770610794425
1670358951558594000,10.269593994140624,-0.0011983871227130294,-0.0015978495357558131,0.0017310036346316338
1670358951568517400,10.279517333984375,-0.0011983871227130294,-0.0015978495357558131,0.0027962366584688425
1670358951578440700,10.289440673828125,-0.0011983871227130294,-0.0026630824431777,0.0038614696823060513
1670358951588364000,10.299364013671875,-0.0011983871227130294,-0.0015978495357558131,0.0027962366584688425
1670358951598287600,10.30928759765625,-0.0011983871227130294,-0.0015978495357558131,0.0017310036346316338
1670358951608211000,10.3192109375,-0.0011983871227130294,-0.0005326165119186044,0.000665770610794425
1670358951618134300,10.32913427734375,-0.0011983871227130294,-0.0005326165119186044,-0.0003994623839389533
1670358951628057600,10.3390576171875,-0.0011983871227130294,-0.0015978495357558131,0.0017310036346316338
1670358951637981200,10.348981201171876,-0.0011983871227130294,-0.0026630824431777,0.0027962366584688425
1670358951647904500,10.358904541015624,-0.0011983871227130294,-0.0026630824431777,0.004926702938973904
1670358951657827800,10.368827880859374,-0.0011983871227130294,-0.0026630824431777,0.004926702938973904
1670358951667751200,10.378751220703125,-0.0011983871227130294,-0.0026630824431777,0.005991935729980469
1670358951677674500,10.388674560546875,-0.0011983871227130294,-0.0026630824431777,0.0038614696823060513
1670358951687598000,10.39859814453125,-0.0011983871227130294,-0.0015978495357558131,0.0017310036346316338
1670358951697521400,10.408521484375,-0.0011983871227130294,-0.0005326165119186044,0.0017310036346316338
1670358951707444700,10.41844482421875,-0.0011983871227130294,-0.0005326165119186044,0.000665770610794425
1670358951717368000,10.4283681640625,-0.0001331541279796511,-0.0005326165119186044,0.0017310036346316338
1670358951727291600,10.438291748046876,-0.0011983871227130294,-0.0015978495357558131,0.0027962366584688425
1670358951737215000,10.448215087890626,-0.0011983871227130294,-0.0015978495357558131,0.004926702938973904
1670358951747138300,10.45813818359375,-0.0011983871227130294,-0.0026630824431777,0.004926702938973904
1670358951757061600,10.4680615234375,-0.0011983871227130294,-0.0026630824431777,0.004926702938973904
1670358951766985200,10.477985107421874,-0.0011983871227130294,-0.0015978495357558131,0.0027962366584688425
1670358951776908500,10.487908447265625,-0.00226362026296556,-0.0005326165119186044,0.000665770610794425
1670358951786832000,10.497831787109375,-0.0011983871227130294,0.0005326165119186044,-0.0003994623839389533
1670358951796755200,10.507755126953125,-0.0011983871227130294,0.0005326165119186044,-0.0025299284607172012
1670358951806678500,10.517678466796875,-0.00226362026296556,0.0005326165119186044,-0.0014646954368799925
1670358951816602000,10.52760205078125,-0.0011983871227130294,0.0005326165119186044,0.000665770610794425
1670358951826525400,10.537525390625,-0.0011983871227130294,-0.0015978495357558131,0.0027962366584688425
1670358951836448800,10.54744873046875,-0.0011983871227130294,-0.0026630824431777,0.004926702938973904
1670358951846372000,10.5573720703125,-0.0011983871227130294,-0.0026630824431777,0.0038614696823060513
1670358951856295700,10.567295654296874,-0.0011983871227130294,-0.0015978495357558131,0.0038614696823060513
1670358951866219000,10.577218994140624,-0.0011983871227130294,-0.0005326165119186044,0.000665770610794425
1670358951876142300,10.587142333984374,-0.0011983871227130294,0.0005326165119186044,-0.0003994623839389533
1670358951886065700,10.597065673828125,-0.0011983871227130294,0.0005326165119186044,-0.0003994623839389533
1670358951895989000,10.606989013671875,-0.0011983871227130294,-0.0005326165119186044,0.000665770610794425
1670358951905912600,10.61691259765625,-0.0011983871227130294,-0.0015978495357558131,0.0017310036346316338
1670358951915836000,10.6268359375,-0.0011983871227130294,-0.0026630824431777,0.0038614696823060513
1670358951925759200,10.63675927734375,-0.0011983871227130294,-0.0026630824431777,0.004926702938973904
1670358951935682600,10.6466826171875,-0.0011983871227130294,-0.0026630824431777,0.004926702938973904
1670358951945606100,10.656606201171876,-0.0011983871227130294,-0.0015978495357558131,0.004926702938973904
1670358951955529500,10.666529541015626,-0.0011983871227130294,-0.0005326165119186044,0.0027962366584688425
1670358951965452800,10.676452880859374,-0.0011983871227130294,-0.0005326165119186044,0.000665770610794425
1670358951975376100,10.686376220703124,-0.0011983871227130294,-0.0005326165119186044,0.000665770610794425
1670358951985299500,10.696299560546874,-0.0011983871227130294,-0.0005326165119186044,0.000665770610794425
1670358951995223000,10.70622314453125,-0.0011983871227130294,-0.0015978495357558131,0.0027962366584688425
1670358952005146400,10.716146484375,-0.0011983871227130294,-0.0026630824431777,0.004926702938973904
1670358952015069700,10.726069580078125,-0.0011983871227130294,-0.0026630824431777,0.004926702938973904
1670358952024993000,10.735992919921875,-0.0011983871227130294,-0.0026630824431777,0.004926702938973904
1670358952034916600,10.74591650390625,-0.0011983871227130294,-0.0026630824431777,0.005991935729980469
1670358952044840000,10.75583984375,-0.0011983871227130294,-0.0026630824431777,0.0038614696823060513
1670358952054763300,10.76576318359375,-0.0011983871227130294,-0.0005326165119186044,0.0017310036346316338
1670358952064686600,10.7756865234375,-0.0011983871227130294,-0.0015978495357558131,0.000665770610794425
1670358952074610000,10.78560986328125,-0.0033288532868027687,-0.022902509197592735,0.008122402243316174
1670358952084533200,10.795533203125,-0.0011983871227130294,-0.0015978495357558131,0.0027962366584688425
1670358952094456800,10.805456787109375,-0.0001331541279796511,0.00585878174751997,0.0017310036346316338
1670358952104380200,10.815380126953125,-0.0011983871227130294,0.0079892473295331,-0.0003994623839389533
1670358952114303500,10.825303466796875,-0.0011983871227130294,0.0037283156998455524,0.000665770610794425
1670358952124226800,10.835226806640625,-0.0011983871227130294,-0.0005326165119186044,0.000665770610794425
1670358952134150100,10.845150146484375,-0.0011983871227130294,-0.0005326165119186044,0.000665770610794425
1670358952144073500,10.855073486328125,-0.0011983871227130294,-0.0005326165119186044,0.0017310036346316338
1670358952153996800,10.864996826171875,-0.0011983871227130294,-0.0005326165119186044,0.000665770610794425
1670358952163920100,10.874920166015626,-0.0011983871227130294,-0.0005326165119186044,-0.0003994623839389533
1670358952173843500,10.884843505859376,-0.0011983871227130294,-0.0005326165119186044,0.000665770610794425
1670358952183766800,10.894766845703124,-0.0011983871227130294,-0.0005326165119186044,0.000665770610794425
1670358952193690000,10.904690185546874,-0.0011983871227130294,-0.0005326165119186044,-0.0003994623839389533
1670358952203613400,10.914613525390624,-0.0011983871227130294,-0.0005326165119186044,-0.0003994623839389533
1670358952213536800,10.924536865234375,-0.0011983871227130294,0.0005326165119186044,-0.0014646954368799925
1670358952223460000,10.934460205078125,-0.0011983871227130294,0.0005326165119186044,-0.0014646954368799925
1670358952233383400,10.944383544921875,-0.00226362026296556,-0.0005326165119186044,-0.0003994623839389533
1670358952243306800,10.954306640625,-0.0011983871227130294,-0.0015978495357558131,0.0017310036346316338
1670358952253230000,10.96422998046875,-0.0011983871227130294,-0.0005326165119186044,0.0017310036346316338
1670358952263153400,10.9741533203125,-0.0011983871227130294,-0.0015978495357558131,0.000665770610794425
1670358952273076700,10.98407666015625,-0.0011983871227130294,-0.0005326165119186044,0.0027962366584688425
1670358952283000000,10.994,-0.0011983871227130294,-0.0015978495357558131,0.000665770610794425
1670358952292923400,11.00392333984375,-0.0011983871227130294,-0.0005326165119186044,-0.0003994623839389533
1670358952302846700,11.0138466796875,-0.0001331541279796511,0.0005326165119186044,-0.0003994623839389533
1670358952312770000,11.02377001953125,-0.0011983871227130294,-0.0005326165119186044,0.0017310036346316338
1670358952322693400,11.033693359375,-0.0011983871227130294,-0.0015978495357558131,0.0017310036346316338
1670358952332616700,11.04361669921875,-0.0011983871227130294,-0.0005326165119186044,0.0017310036346316338
1670358952342540000,11.0535400390625,-0.0011983871227130294,-0.0005326165119186044,0.0027962366584688425
1670358952352463400,11.06346337890625,-0.0011983871227130294,-0.0015978495357558131,0.0027962366584688425
1670358952362386700,11.07338671875,-0.0011983871227130294,-0.0015978495357558131,0.0027962366584688425
1670358952372310000,11.08331005859375,-0.0011983871227130294,-0.0015978495357558131,0.0017310036346316338
1670358952382233300,11.0932333984375,-0.0011983871227130294,-0.0015978495357558131,0.0017310036346316338
1670358952392156700,11.10315673828125,-0.0011983871227130294,-0.0005326165119186044,0.0017310036346316338
1670358952402080000,11.113080078125,-0.0011983871227130294,-0.0005326165119186044,0.0017310036346316338
1670358952412003300,11.12300341796875,-0.0011983871227130294,-0.0015978495357558131,0.000665770610794425
1670358952421926700,11.1329267578125,-0.0011983871227130294,-0.0005326165119186044,0.000665770610794425
1670358952431850000,11.14285009765625,-0.00226362026296556,-0.0005326165119186044,-0.0003994623839389533
1670358952441773300,11.152773193359375,-0.0011983871227130294,-0.0005326165119186044,0.000665770610794425
1670358952451696600,11.162696533203125,-0.0001331541279796511,-0.0015978495357558131,0.0017310036346316338
1670358952461620000,11.172619873046875,-0.0011983871227130294,-0.0005326165119186044,0.0017310036346316338
1670358952471543300,11.182543212890625,-0.0011983871227130294,-0.0015978495357558131,0.0027962366584688425
1670358952481467000,11.192466796875,-0.0011983871227130294,-0.0015978495357558131,0.0027962366584688425
1670358952491390200,11.20239013671875,-0.0011983871227130294,-0.0005326165119186044,0.0027962366584688425
1670358952501313500,11.2123134765625,-0.0011983871227130294,-0.0005326165119186044,0.0027962366584688425
1670358952511236900,11.22223681640625,-0.0011983871227130294,-0.0005326165119186044,0.0017310036346316338
1670358952521160400,11.232160400390624,-0.0001331541279796511,-0.0015978495357558131,0.0017310036346316338
1670358952531083800,11.242083740234374,-0.0011983871227130294,-0.0005326165119186044,0.0017310036346316338
1670358952541007000,11.252007080078124,-0.0011983871227130294,-0.0005326165119186044,-0.0003994623839389533
1670358952550930400,11.261930419921875,-0.0011983871227130294,-0.0005326165119186044,0.000665770610794425
1670358952560854000,11.27185400390625,-0.0011983871227130294,-0.0005326165119186044,0.0017310036346316338
1670358952570777300,11.28177734375,-0.0011983871227130294,-0.0015978495357558131,0.0017310036346316338
1670358952580700700,11.29170068359375,-0.0011983871227130294,-0.0015978495357558131,0.0027962366584688425
1670358952590624000,11.3016240234375,-0.0011983871227130294,-0.0015978495357558131,0.0038614696823060513
1670358952600547300,11.31154736328125,-0.0011983871227130294,-0.0015978495357558131,0.0027962366584688425
1670358952610471000,11.321470947265626,-0.0011983871227130294,-0.0015978495357558131,0.0027962366584688425
1670358952620394200,11.331394287109376,-0.0011983871227130294,-0.0005326165119186044,0.000665770610794425
1670358952630317600,11.341317626953124,-0.0011983871227130294,-0.0005326165119186044,0.000665770610794425
1670358952640241000,11.351240966796874,-0.0011983871227130294,-0.0005326165119186044,0.000665770610794425
1670358952650164500,11.36116455078125,-0.0011983871227130294,-0.0005326165119186044,0.000665770610794425
1670358952660087800,11.371087890625,-0.0011983871227130294,-0.0005326165119186044,0.000665770610794425
1670358952670011100,11.38101123046875,-0.0011983871227130294,-0.0015978495357558131,0.0017310036346316338
1670358952679934500,11.3909345703125,-0.0011983871227130294,-0.0015978495357558131,0.0027962366584688425
1670358952689857800,11.40085791015625,-0.0011983871227130294,-0.0015978495357558131,0.0038614696823060513
1670358952699781400,11.410781494140625,-0.0011983871227130294,-0.0015978495357558131,0.0027962366584688425
1670358952709704700,11.42070458984375,-0.00226362026296556,-0.0015978495357558131,0.0017310036346316338
1670358952719628000,11.4306279296875,-0.00226362026296556,-0.0005326165119186044,0.000665770610794425
1670358952729551400,11.44055126953125,-0.0011983871227130294,-0.0005326165119186044,-0.0003994623839389533
1670358952739475000,11.450474853515624,-0.0011983871227130294,-0.0005326165119186044,-0.0003994623839389533
1670358952749398300,11.460398193359374,-0.0011983871227130294,-0.0005326165119186044,-0.0014646954368799925
1670358952759321600,11.470321533203125,-0.0011983871227130294,-0.0005326165119186044,0.000665770610794425
1670358952769245000,11.480244873046875,-0.0011983871227130294,0.0005326165119186044,0.0017310036346316338
1670358952779168300,11.490168212890625,-0.0011983871227130294,-0.0015978495357558131,0.0027962366584688425
1670358952789091800,11.500091796875,-0.0011983871227130294,-0.0015978495357558131,0.0027962366584688425
1670358952799015200,11.51001513671875,-0.0011983871227130294,-0.0015978495357558131,0.0027962366584688425
1670358952808938500,11.5199384765625,-0.0011983871227130294,-0.0015978495357558131,0.0017310036346316338
1670358952818861800,11.52986181640625,-0.0011983871227130294,-0.0005326165119186044,0.000665770610794425
1670358952828785400,11.539785400390626,-0.0011983871227130294,0.0005326165119186044,0.000665770610794425
1670358952838708700,11.549708740234376,-0.0011983871227130294,-0.0005326165119186044,0.000665770610794425
1670358952848632000,11.559632080078124,-0.0001331541279796511,-0.0005326165119186044,0.000665770610794425
1670358952858555400,11.569555419921874,-0.0011983871227130294,-0.0005326165119186044,0.0017310036346316338
1670358952868478700,11.579478759765625,-0.0001331541279796511,-0.0005326165119186044,0.0038614696823060513
1670358952878402300,11.58940234375,-0.0011983871227130294,-0.0005326165119186044,0.0027962366584688425
1670358952888325600,11.59932568359375,-0.0011983871227130294,-0.0015978495357558131,0.0027962366584688425
1670358952898249000,11.6092490234375,-0.0011983871227130294,-0.0015978495357558131,0.0027962366584688425
1670358952908172300,11.61917236328125,-0.0011983871227130294,-0.0015978495357558131,0.0017310036346316338
