time,seconds_elapsed_x,ACC_Z,ACC_Y,ACC_X,seconds_elapsed_y,GYRO_Z,GYRO_Y,GYRO_X,seconds_elapsed,text
1670358941526095000,0.23709521484375,-0.0511045455932617,-0.0085794702172279,0.0041204327717423,0.23709521484375,-0.001198387122713,-0.0015978495357558,0.0006657706107944,,
1670358941536018400,0.247018310546875,-0.0395278930664062,0.0050568021833896,0.0058205779641866,0.247018310546875,-0.0001331541279796,-0.0005326165119186,0.0017310036346316,,
1670358941545941800,0.256941650390625,-0.0381126403808593,0.0176000818610191,0.0226689353585243,0.256941650390625,-0.0001331541279796,-0.0005326165119186,0.0006657706107944,,
1670358941555864800,0.26686474609375,-0.0305452346801757,0.0116780903190374,0.0206386614590883,0.26686474609375,-0.001198387122713,-0.0015978495357558,0.0006657706107944,,
1670358941565788200,0.2767880859375,-0.034830093383789,0.0062933005392551,0.0190058667212724,0.2767880859375,-0.001198387122713,-0.0005326165119186,0.0006657706107944,,
1670358941575711200,0.286711181640625,-0.0390148162841796,-0.0097913853824138,0.0042570033110678,0.286711181640625,-0.0001331541279796,-0.0005326165119186,0.0006657706107944,,
1670358941585634600,0.296634521484375,-0.0207633972167968,-0.0114391520619392,-0.0027798181399703,0.296634521484375,-0.001198387122713,-0.0005326165119186,0.0006657706107944,,
1670358941595558000,0.306557861328125,-0.0262031555175781,-0.0219196714460849,0.001839555799961,0.306557861328125,-0.001198387122713,-0.0005326165119186,-0.0003994623839389,,
1670358941605481000,0.31648095703125,-0.017897605895996,-0.0093240849673748,0.0309950821101665,0.31648095703125,-0.0001331541279796,-0.0005326165119186,-0.0003994623839389,,
1670358941615404300,0.326404296875,-0.0078544616699218,0.0048018507659435,0.0359150171279907,0.326404296875,-0.001198387122713,-0.0015978495357558,-0.0003994623839389,,
1670358941625327600,0.33632763671875,-0.009709358215332,0.016029130667448,0.0385171771049499,0.33632763671875,-0.001198387122713,-0.0005326165119186,-0.0014646954368799,,
1670358941635251000,0.3462509765625,-0.0297040939331054,-0.0005689673125743,0.0183396153151989,0.3462509765625,-0.0001331541279796,-0.0005326165119186,-0.0014646954368799,,
1670358941645174300,0.35617431640625,-0.0100383758544921,-0.0025897584855556,-0.0145200183615088,0.35617431640625,-0.001198387122713,-0.0005326165119186,-0.0025299284607172,,
1670358941655097600,0.36609765625,-0.0050067901611328,0.0001486986875534,-0.0298127848654985,0.36609765625,-0.001198387122713,0.0005326165119186,-0.0035951614845544,,
1670358941665021000,0.37602099609375,-0.0116615295410156,0.0072507597506046,-0.0170064494013786,0.37602099609375,-0.001198387122713,0.0005326165119186,-0.0025299284607172,,
1670358941674944300,0.3859443359375,-0.0203580856323242,0.0117749646306037,0.0067124147899448,0.3859443359375,-0.001198387122713,0.0005326165119186,-0.0025299284607172,,
1670358941684867600,0.39586767578125,-0.0218420028686523,0.0139396507292985,0.0270938798785209,0.39586767578125,-0.001198387122713,-0.0005326165119186,-0.0035951614845544,,
1670358941694791000,0.405791015625,-0.0002708435058593,-0.0024842470884323,0.0352185815572738,0.405791015625,-0.0001331541279796,-0.0005326165119186,-0.0025299284607172,,
1670358941704714200,0.41571435546875,0.0020475387573242,-0.0135890245437622,0.0361738316714763,0.41571435546875,-0.001198387122713,-0.0005326165119186,-0.0035951614845544,,
1670358941714637600,0.425637451171875,-0.0165033340454101,-0.0219048559665679,0.025696113705635,0.425637451171875,-0.001198387122713,0.0005326165119186,-0.0046603945083916,,
1670358941724561000,0.435560791015625,-0.027496337890625,-0.0138730555772781,0.0109872054308652,0.435560791015625,-0.0001331541279796,0.0005326165119186,-0.0035951614845544,,
1670358941734484200,0.445484130859375,-0.038156509399414,0.00303565710783,-0.0147964768111705,0.445484130859375,-0.0001331541279796,0.0005326165119186,-0.0025299284607172,,
1670358941744407600,0.455407470703125,-0.0206975936889648,0.005391638725996,-0.0189015232026577,0.455407470703125,-0.001198387122713,0.0005326165119186,-0.0014646954368799,,
1670358941754331000,0.465330810546875,-0.0130882263183593,0.0031398944556713,-0.0252185966819524,0.465330810546875,-0.001198387122713,0.0005326165119186,-0.0025299284607172,,
1670358941764254200,0.475254150390625,-0.0243053436279296,0.0079280845820903,-0.0152098275721073,0.475254150390625,-0.0001331541279796,-0.0005326165119186,-0.0025299284607172,,
1670358941774177500,0.485177490234375,-0.0352144241333007,-0.0037941150367259,0.0062169367447495,0.485177490234375,-0.001198387122713,0.0005326165119186,-0.0014646954368799,,
1670358941784100900,0.495100830078125,-0.0249004364013671,-0.0245946273207664,0.006093556061387,0.495100830078125,-0.001198387122713,0.0005326165119186,-0.0003994623839389,,
1670358941794024200,0.505024169921875,-0.0032482147216796,-0.0378506295382976,0.019952192902565,0.505024169921875,-0.001198387122713,0.0005326165119186,-0.0003994623839389,,
1670358941803947500,0.514947509765625,0.0061626434326171,-0.008824348449707,0.0263575240969657,0.514947509765625,-0.001198387122713,-0.0005326165119186,-0.0003994623839389,,
1670358941813870800,0.524870849609375,0.0013360977172851,0.0148687548935413,0.0209513567388057,0.524870849609375,-0.001198387122713,-0.0005326165119186,-0.0014646954368799,,
1670358941823794200,0.534794189453125,0.0129737854003906,0.0357326492667198,0.0064646899700164,0.534794189453125,-0.0001331541279796,0.0005326165119186,-0.0025299284607172,,
1670358941833717500,0.544717529296875,-0.0060348510742187,0.0256336200982332,-0.0146623281762003,0.544717529296875,-0.0001331541279796,0.0005326165119186,-0.0014646954368799,,
1670358941843640800,0.554640869140625,-0.008223533630371,0.013562124222517,-0.0237006675451993,0.554640869140625,-0.001198387122713,-0.0005326165119186,-0.0025299284607172,,
1670358941853564200,0.564564208984375,-0.008026123046875,-0.0074653811752796,-0.0113896504044532,0.564564208984375,-0.001198387122713,0.0005326165119186,-0.0035951614845544,,
1670358941863487500,0.574487548828125,-0.0359153747558593,-0.0235332362353801,-0.0040509402751922,0.574487548828125,-0.001198387122713,0.0005326165119186,-0.0014646954368799,,
1670358941873410800,0.584410888671875,-0.0444631576538085,-0.027645856142044,0.0147215789183974,0.584410888671875,-0.001198387122713,-0.0005326165119186,-0.0003994623839389,,
1670358941883334100,0.594334228515625,-0.0223951339721679,-0.0316813774406909,0.0238179732114076,0.594334228515625,-0.001198387122713,0.0005326165119186,-0.0003994623839389,,
1670358941893257500,0.604257568359375,0.0085563659667968,-0.0215844176709651,0.0138786882162094,0.604257568359375,-0.001198387122713,-0.0005326165119186,-0.0003994623839389,,
1670358941903180800,0.614180908203125,0.0224409103393554,-0.0046789571642875,0.0065019424073398,0.614180908203125,-0.001198387122713,-0.0005326165119186,-0.0003994623839389,,
1670358941913104100,0.624104248046875,0.0102462768554687,0.0237026177346706,-0.0101004717871546,0.624104248046875,-0.001198387122713,-0.0005326165119186,-0.0014646954368799,,
1670358941923027500,0.63402734375,0.0241174697875976,0.0469247065484523,-0.0215726476162672,0.63402734375,-0.001198387122713,0.0005326165119186,-0.0025299284607172,,
1670358941932950800,0.64395068359375,0.0283327102661132,0.0439813211560249,-0.0163913741707801,0.64395068359375,-0.001198387122713,0.0005326165119186,-0.0035951614845544,,
1670358941942874000,0.6538740234375,0.0066423416137695,0.0106853768229484,0.0005270063411444,0.6538740234375,-0.001198387122713,0.0015978495357558,-0.0046603945083916,,
1670358941952794000,0.663794189453125,-0.0287237167358398,-0.0195141620934009,0.0100719463080167,0.663794189453125,-0.001198387122713,0.0015978495357558,-0.0057256272993981,,
1670358941962714000,0.673714111328125,-0.044631004333496,-0.0493566468358039,0.0147399399429559,0.673714111328125,-0.001198387122713,0.0015978495357558,-0.0035951614845544,,
1670358941972634600,0.683634521484375,-0.0555601119995117,-0.0694651752710342,0.0121705839410424,0.683634521484375,-0.001198387122713,0.0005326165119186,-0.0014646954368799,,
1670358941982555600,0.6935556640625,-0.0310297012329101,-0.0470001064240932,0.0143559500575065,0.6935556640625,-0.001198387122713,0.0005326165119186,-0.0003994623839389,,
1670358941992477200,0.703477294921875,0.0001096725463867,-0.0155409350991249,0.0188597291707992,0.703477294921875,-0.001198387122713,0.0005326165119186,-0.0003994623839389,,
1670358942002399200,0.713399169921875,0.0259962081909179,0.0295849591493606,0.0137738194316625,0.713399169921875,-0.001198387122713,-0.0005326165119186,-0.0014646954368799,,
1670358942012322000,0.723322021484375,0.0231943130493164,0.0599198080599308,-0.0053452281281352,0.723322021484375,-0.001198387122713,-0.0005326165119186,-0.0025299284607172,,
1670358942022245400,0.733245361328125,0.0345773696899414,0.0545381605625152,-0.0216839648783206,0.733245361328125,-0.001198387122713,0.0005326165119186,-0.0035951614845544,,
1670358942032169500,0.74316943359375,0.0198707580566406,0.0352316126227378,-0.0354010537266731,0.74316943359375,-0.001198387122713,0.0005326165119186,-0.0046603945083916,,
1670358942042094000,0.753093994140625,-0.022857666015625,-0.0096641741693019,-0.0276900772005319,0.753093994140625,-0.0022636202629655,0.0005326165119186,-0.0046603945083916,,
1670358942052019200,0.763019287109375,-0.0436744689941406,-0.0492036379873752,-0.0130404150113463,0.763019287109375,-0.001198387122713,0.0005326165119186,-0.0035951614845544,,
1670358942061944800,0.77294482421875,-0.0641460418701171,-0.0410760529339313,0.0129368053749203,0.77294482421875,-0.001198387122713,-0.0015978495357558,-0.0025299284607172,,
1670358942071870700,0.78287060546875,-0.0371656417846679,-0.0568455010652542,0.033872976899147,0.78287060546875,-0.001198387122713,-0.0005326165119186,-0.0003994623839389,,
1670358942081796600,0.792796630859375,-0.0153455734252929,-0.0440854988992214,0.0356157682836055,0.792796630859375,-0.001198387122713,-0.0005326165119186,-0.0003994623839389,,
1670358942091722800,0.80272265625,0.0013990402221679,-0.0104411803185939,0.0255517438054084,0.80272265625,-0.001198387122713,-0.0005326165119186,0.0006657706107944,,
1670358942101648100,0.812648193359375,0.0060863494873046,0.0273535009473562,0.0038776788860559,0.812648193359375,-0.001198387122713,-0.0005326165119186,0.0006657706107944,,
1670358942111571500,0.822571533203125,0.0036287307739257,0.0385042205452919,-0.0314654819667339,0.822571533203125,-0.001198387122713,0.0005326165119186,0.0017310036346316,,
1670358942121494800,0.832494873046875,-0.0034980773925781,0.0330831930041313,-0.0546477623283863,0.832494873046875,-0.001198387122713,-0.0015978495357558,0.0006657706107944,,
1670358942131418000,0.842418212890625,-0.0105066299438476,0.0089081302285194,-0.0608523823320865,0.842418212890625,-0.0022636202629655,-0.0005326165119186,0.0006657706107944,,
1670358942141341400,0.852341552734375,-0.0385990142822265,-0.0102558620274066,-0.0386869311332702,0.852341552734375,-0.0022636202629655,-0.0005326165119186,0.0017310036346316,,
1670358942151264800,0.8622646484375,-0.0191125869750976,-0.0292034409940242,0.0017481599934399,0.8622646484375,-0.001198387122713,-0.0026630824431777,0.0027962366584688,,
1670358942161188000,0.87218798828125,4.86373901367e-05,-0.0431241132318973,0.0392567478120327,0.87218798828125,-0.001198387122713,-0.0015978495357558,0.0027962366584688,,
1670358942171111400,0.882111328125,0.0047559738159179,-0.0379683524370193,0.0620068609714508,0.882111328125,-0.001198387122713,-0.0015978495357558,0.0027962366584688,,
1670358942181034500,0.892034423828125,0.0046758651733398,-0.0045289248228073,0.0584667138755321,0.892034423828125,-0.001198387122713,-0.0015978495357558,0.0017310036346316,,
1670358942190957800,0.901957763671875,0.0187301635742187,0.0188279822468757,0.0385996513068676,0.901957763671875,-0.001198387122713,-0.0005326165119186,0.0027962366584688,,
1670358942200881200,0.911881103515625,0.0207719802856445,0.0136319175362586,-0.0116614568978548,0.911881103515625,-0.001198387122713,-0.0015978495357558,0.0017310036346316,,
1670358942210804500,0.921804443359375,-0.0031290054321289,0.0180476270616054,-0.0397813580930233,0.921804443359375,-0.0001331541279796,-0.0005326165119186,0.0006657706107944,,
1670358942220727800,0.931727783203125,-0.0007219314575195,0.0269978940486907,-0.0603664964437484,0.931727783203125,-0.001198387122713,-0.0005326165119186,0.0017310036346316,,
1670358942230651100,0.941651123046875,0.0181350708007812,0.0123464316129684,-0.0523418933153152,0.941651123046875,-0.001198387122713,-0.0005326165119186,0.0006657706107944,,
1670358942240574200,0.95157421875,-0.0151453018188476,-0.0044163912534713,-0.0186429116874933,0.95157421875,-0.001198387122713,-0.0015978495357558,0.0006657706107944,,
1670358942250497500,0.96149755859375,0.0110177993774414,-0.0161887183785438,0.0334418267011642,0.96149755859375,-0.001198387122713,-0.0005326165119186,0.0006657706107944,,
1670358942260420900,0.9714208984375,0.0179014205932617,-0.0089204423129558,0.0563923865556716,0.9714208984375,-0.0001331541279796,-0.0005326165119186,0.0006657706107944,,
1670358942270344200,0.98134423828125,0.0105361938476562,-0.0110925361514091,0.0601154491305351,0.98134423828125,-0.001198387122713,-0.0005326165119186,-0.0003994623839389,,
1670358942280267500,0.991267578125,-0.0037727355957031,-0.0345313921570777,0.0332572385668754,0.991267578125,-0.001198387122713,0.0005326165119186,0.0006657706107944,,
1670358942290190600,1.001190673828125,-0.0013542175292968,-0.017432227730751,-0.0049311127513647,1.001190673828125,-0.001198387122713,0.0005326165119186,-0.0003994623839389,,
1670358942300114000,1.011114013671875,-0.0225324630737304,0.0134123116731643,-0.0307052265852689,1.011114013671875,-0.001198387122713,0.0005326165119186,0.0006657706107944,,
1670358942310037200,1.021037353515625,-0.0292243957519531,0.0106620453298091,-0.0443749725818634,1.021037353515625,-0.001198387122713,-0.0005326165119186,0.0017310036346316,,
1670358942319960600,1.030960693359375,-0.0028276443481445,0.0056020841002464,-0.057816881686449,1.030960693359375,-0.001198387122713,-0.0005326165119186,0.0017310036346316,,
1670358942329884000,1.0408837890625,-0.0122041702270507,0.0075901634991168,-0.028840722516179,1.0408837890625,-0.001198387122713,-0.0026630824431777,0.0027962366584688,,
1670358942339807200,1.05080712890625,0.0209741592407226,0.0142562240362167,-0.0096667390316724,1.05080712890625,-0.001198387122713,-0.0015978495357558,0.0027962366584688,,
1670358942349730300,1.060730224609375,0.0276908874511718,-0.002641424536705,0.0304911788552999,1.060730224609375,-0.0001331541279796,-0.0005326165119186,0.0017310036346316,,
1670358942359653600,1.070653564453125,0.0201616287231445,-0.0074796602129936,0.0534903742372989,1.070653564453125,-0.001198387122713,-0.0005326165119186,0.0017310036346316,,
1670358942369577000,1.080576904296875,0.0080480575561523,-0.0027120895683765,0.0454840436577796,1.080576904296875,-0.001198387122713,-0.0005326165119186,0.0006657706107944,,
1670358942379500300,1.090500244140625,0.0008478164672851,-0.0002765581011772,0.0305439494550228,1.090500244140625,-0.0022636202629655,-0.0005326165119186,-0.0003994623839389,,
1670358942389423600,1.100423583984375,0.000833511352539,-0.0025927387177944,-0.0099547151476144,1.100423583984375,-0.001198387122713,0.0005326165119186,-0.0003994623839389,,
1670358942399346700,1.1103466796875,-0.0250921249389648,-0.0167510583996772,-0.0333925038576126,1.1103466796875,-0.001198387122713,-0.0005326165119186,0.0006657706107944,,
1670358942409270000,1.12027001953125,-0.0246734619140625,-0.0047623068094253,-0.0399507842957973,1.12027001953125,-0.001198387122713,-0.0005326165119186,0.0006657706107944,,
1670358942419193300,1.130193359375,-0.0077743530273437,0.0092792250216007,-0.0323694050312042,1.130193359375,-0.001198387122713,-0.0015978495357558,0.0017310036346316,,
1670358942429116700,1.14011669921875,0.0229768753051757,0.0065978653728961,-0.0106780882924795,1.14011669921875,-0.001198387122713,-0.0005326165119186,0.0017310036346316,,
1670358942439040000,1.1500400390625,0.0155277252197265,-0.0006469450891017,0.0012294956250116,1.1500400390625,-0.001198387122713,-0.0005326165119186,0.0006657706107944,,
1670358942448963300,1.15996337890625,0.0082015991210937,0.0017541646957397,0.0270724818110466,1.15996337890625,-0.0001331541279796,-0.0005326165119186,-0.0003994623839389,,
1670358942458886700,1.16988671875,0.0127763748168945,0.0040122866630554,0.0312842279672622,1.16988671875,-0.001198387122713,-0.0005326165119186,0.0006657706107944,,
1670358942468810000,1.17981005859375,-0.0015697479248046,-0.0102561116218566,0.0165813416242599,1.17981005859375,-0.001198387122713,-0.0005326165119186,0.0006657706107944,,
1670358942478733300,1.1897333984375,-0.0062551498413085,-0.0241837278008461,-0.0002320472849532,1.1897333984375,-0.001198387122713,-0.0005326165119186,-0.0003994623839389,,
1670358942488656600,1.19965673828125,-0.0226402282714843,-0.0166792348027229,-0.0120541118085384,1.19965673828125,-0.001198387122713,-0.0005326165119186,-0.0003994623839389,,
1670358942498580000,1.209580078125,-0.0151958465576171,0.0023749805986881,-0.0166124794632196,1.209580078125,-0.001198387122713,-0.0005326165119186,0.0006657706107944,,
1670358942508503300,1.21950341796875,-0.0125865936279296,-8.83527100086e-05,-0.0116726579144597,1.21950341796875,-0.001198387122713,-0.0005326165119186,0.0006657706107944,,
1670358942518426600,1.229426513671875,0.0041112899780273,-0.0095772929489612,-0.0068151638843119,1.229426513671875,-0.001198387122713,-0.0005326165119186,0.0006657706107944,,
1670358942528350000,1.239349853515625,0.0087537765502929,0.0140696726739406,0.0049250610172748,1.239349853515625,-0.001198387122713,-0.0015978495357558,0.0006657706107944,,
1670358942538273300,1.249273193359375,0.0086078643798828,0.0208336412906646,8.37116676848e-05,1.249273193359375,-0.001198387122713,-0.0005326165119186,0.0006657706107944,,
1670358942548196600,1.259196533203125,0.0131759643554687,0.0087434202432632,0.0071008242666721,1.259196533203125,-0.001198387122713,-0.0005326165119186,-0.0003994623839389,,
1670358942558120000,1.269119873046875,-0.0106000900268554,0.0038183853030204,-0.004843445494771,1.269119873046875,-0.001198387122713,-0.0005326165119186,0.0006657706107944,,
1670358942568043300,1.279043212890625,0.0037097930908203,-0.0080912224948406,-0.0071658887900412,1.279043212890625,-0.0001331541279796,-0.0005326165119186,0.0006657706107944,,
1670358942577966600,1.288966552734375,-0.0175514221191406,-0.0196993686258792,-0.0093471882864832,1.288966552734375,-0.001198387122713,0.0005326165119186,-0.0003994623839389,,
1670358942587890000,1.298889892578125,-0.0219707489013671,-0.0264029279351234,0.0025382123421877,1.298889892578125,-0.001198387122713,-0.0005326165119186,-0.0003994623839389,,
1670358942597813200,1.308813232421875,-0.0145387649536132,-0.0214229300618171,9.21972896321e-05,1.308813232421875,-0.001198387122713,-0.0005326165119186,0.0017310036346316,,
1670358942607736600,1.318736572265625,-0.0048751831054687,0.0046740472316741,0.0094647174701094,1.318736572265625,-0.001198387122713,-0.0005326165119186,0.0017310036346316,,
1670358942617660000,1.328659912109375,0.0211162567138671,0.0067805424332618,0.004548255354166,1.328659912109375,-0.0001331541279796,-0.0005326165119186,0.0017310036346316,,
1670358942627583200,1.338583251953125,0.0066308975219726,0.0065993331372737,-0.002642364706844,1.338583251953125,-0.001198387122713,-0.0005326165119186,0.0006657706107944,,
1670358942637506600,1.348506591796875,0.0065202713012695,0.011132251471281,-0.0002909243048634,1.348506591796875,-0.001198387122713,-0.0005326165119186,0.0006657706107944,,
1670358942647430000,1.358429931640625,0.0040559768676757,0.0132340677082538,-0.0074003492482006,1.358429931640625,-0.0001331541279796,-0.0005326165119186,0.0006657706107944,,
1670358942657353200,1.368353271484375,0.0063438415527343,0.0035230815410614,-0.0120362658053636,1.368353271484375,-0.001198387122713,-0.0005326165119186,0.0006657706107944,,
1670358942667276500,1.378276611328125,-0.003183364868164,-0.0083816014230251,-0.0095282532274723,1.378276611328125,-0.001198387122713,-0.0005326165119186,0.0006657706107944,,
1670358942677200000,1.388199951171875,-0.0196199417114257,-0.0107686333358287,-0.0094175962731242,1.388199951171875,-0.001198387122713,-0.0005326165119186,0.0017310036346316,,
1670358942687123200,1.398123291015625,-0.0145816802978515,-0.0153684578835964,-0.0069532277993857,1.398123291015625,-0.001198387122713,-0.0005326165119186,0.0006657706107944,,
1670358942697046500,1.408046630859375,0.0068607330322265,-0.012824960052967,0.0025367282796651,1.408046630859375,-0.001198387122713,-0.0005326165119186,0.0006657706107944,,
1670358942706969900,1.417969970703125,-0.0497903823852539,-0.0063335187733173,0.0097062159329652,1.417969970703125,-0.001198387122713,-0.0229025091975927,0.0081224022433161,,
1670358942716893200,1.42789306640625,0.0028619766235351,-0.0061931908130645,0.0028420102316886,1.42789306640625,-0.0001331541279796,0.0037283156998455,-0.0003994623839389,,
1670358942726816500,1.43781640625,0.0310821533203125,0.0081810615956783,-0.0058520431630313,1.43781640625,-0.001198387122713,0.0079892473295331,-0.0014646954368799,,
1670358942736739800,1.44773974609375,0.0117206573486328,0.0034713260829448,-0.0076433853246271,1.44773974609375,-0.001198387122713,0.0047935484908521,-0.0014646954368799,,
1670358942746663200,1.4576630859375,-0.0120306015014648,0.0079534165561199,-0.009919692762196,1.4576630859375,-0.001198387122713,-0.0005326165119186,0.0017310036346316,,
1670358942756586500,1.46758642578125,-5.34057617187e-05,-0.0017725154757499,0.0019752669613808,1.46758642578125,-0.001198387122713,-0.0005326165119186,0.0017310036346316,,
1670358942758000000,,,,,,,,,1.469000244140625,On the table
1670358942766509800,1.477509765625,-0.0024080276489257,-0.0183000490069389,0.0041467985138297,1.477509765625,-0.001198387122713,-0.0015978495357558,0.0006657706107944,,On the table
1670358942776433200,1.48743310546875,-0.0235681533813476,-0.0157076939940452,0.0037206546403467,1.48743310546875,-0.001198387122713,-0.0037283156998455,0.0006657706107944,,On the table
1670358942786356500,1.4973564453125,0.0168695449829101,-0.015514101833105,0.0105742067098617,1.4973564453125,-0.001198387122713,-0.0015978495357558,0.0006657706107944,,On the table
1670358942796279800,1.50727978515625,0.0377864837646484,0.0010621733963489,0.0272505525499582,1.50727978515625,-0.001198387122713,0.0037283156998455,0.0017310036346316,,On the table
1670358942806203400,1.517203369140625,-0.007598876953125,0.0009762719273567,0.0127184120938181,1.517203369140625,-0.0001331541279796,0.0005326165119186,0.0006657706107944,,On the table
1670358942816126700,1.527126708984375,0.0043048858642578,0.0126695558428764,0.0006805261364206,1.527126708984375,-0.001198387122713,-0.0005326165119186,0.0006657706107944,,On the table
1670358942826050000,1.537050048828125,-0.0004777908325195,0.0194568410515785,-0.0276456028223037,1.537050048828125,-0.001198387122713,-0.0005326165119186,0.0006657706107944,,On the table
1670358942835973400,1.546973388671875,0.0207300186157226,-0.0021356344223022,-0.0390107482671737,1.546973388671875,-0.001198387122713,-0.0005326165119186,0.0006657706107944,,On the table
1670358942845896700,1.556896728515625,0.0062513351440429,0.0002902783453464,-0.0313420444726944,1.556896728515625,-0.001198387122713,-0.0005326165119186,-0.0003994623839389,,On the table
1670358942855820000,1.566820068359375,0.0108585357666015,0.0050313211977481,-0.0003485880442894,1.566820068359375,-0.001198387122713,-0.0015978495357558,-0.0003994623839389,,On the table
1670358942865743400,1.576743408203125,0.0130329132080078,0.0001681521534919,0.0420090556144714,1.576743408203125,-0.001198387122713,-0.0005326165119186,0.0006657706107944,,On the table
1670358942875666700,1.586666748046875,0.0175275802612304,-0.0162887498736381,0.0437198206782341,1.586666748046875,-0.0001331541279796,0.0005326165119186,-0.0003994623839389,,On the table
1670358942885590000,1.596590087890625,0.024301528930664,-0.0206936262547969,0.0289126709103584,1.596590087890625,-0.001198387122713,0.0005326165119186,-0.0003994623839389,,On the table
1670358942895513300,1.606513427734375,-0.0090818405151367,-0.0179584249854087,0.0142493173480033,1.606513427734375,-0.001198387122713,-0.0005326165119186,-0.0003994623839389,,On the table
1670358942905436700,1.616436767578125,-0.0254182815551757,-0.0104547291994094,-0.0237251874059438,1.616436767578125,-0.001198387122713,-0.0005326165119186,-0.0014646954368799,,On the table
1670358942915360000,1.626360107421875,-0.0226392745971679,0.0015320368111133,-0.0469334609806537,1.626360107421875,-0.001198387122713,-0.0005326165119186,-0.0003994623839389,,On the table
1670358942925283300,1.636283447265625,0.0036487579345703,0.0085049495100975,-0.0626882687211036,1.636283447265625,-0.001198387122713,-0.0005326165119186,0.0006657706107944,,On the table
1670358942935206700,1.64620654296875,0.0082998275756835,0.0201757438480854,-0.0381355360150337,1.64620654296875,-0.0001331541279796,-0.0005326165119186,-0.0003994623839389,,On the table
1670358942945130000,1.6561298828125,0.0246505737304687,0.0269409194588661,0.0048518781550228,1.6561298828125,-0.001198387122713,-0.0005326165119186,-0.0003994623839389,,On the table
1670358942955053300,1.66605322265625,0.0124626159667968,0.0076822526752948,0.0354480519890785,1.66605322265625,-0.001198387122713,0.0005326165119186,-0.0003994623839389,,On the table
1670358942964976600,1.6759765625,0.0051889419555664,-0.0135080143809318,0.0537565201520919,1.6759765625,-0.001198387122713,0.0005326165119186,-0.0014646954368799,,On the table
1670358942974900000,1.68589990234375,-0.0113859176635742,-0.0319895595312118,0.0387820862233638,1.68589990234375,-0.001198387122713,0.0005326165119186,-0.0014646954368799,,On the table
1670358942984823300,1.6958232421875,-0.0159053802490234,-0.0407408811151981,0.0146350041031837,1.6958232421875,-0.001198387122713,0.0005326165119186,-0.0014646954368799,,On the table
1670358942994746600,1.70574658203125,-0.015639305114746,-0.0281463600695133,-0.0255985148251056,1.70574658203125,-0.001198387122713,0.0005326165119186,-0.0014646954368799,,On the table
1670358943004670000,1.715669921875,-0.0130233764648437,0.0005211718380451,-0.0487755835056304,1.715669921875,-0.001198387122713,-0.0005326165119186,0.0006657706107944,,On the table
1670358943014593300,1.72559326171875,-0.0033845901489257,0.0288138948380947,-0.0456552691757679,1.72559326171875,-0.001198387122713,-0.0005326165119186,-0.0003994623839389,,On the table
1670358943024516600,1.7355166015625,0.0155162811279296,0.0472128689289093,-0.0377728752791881,1.7355166015625,-0.001198387122713,0.0005326165119186,-0.0003994623839389,,On the table
1670358943034440000,1.74543994140625,0.0270357131958007,0.032327439635992,-0.0111768720671534,1.74543994140625,-0.0001331541279796,0.0005326165119186,-0.0003994623839389,,On the table
1670358943044363300,1.75536328125,0.0077409744262695,0.0083708688616752,0.0148728862404823,1.75536328125,-0.0001331541279796,-0.0005326165119186,-0.0014646954368799,,On the table
1670358943054286600,1.76528662109375,0.0005464553833007,-0.0175419673323631,0.0383383557200431,1.76528662109375,-0.001198387122713,0.0015978495357558,-0.0014646954368799,,On the table
1670358943064210000,1.7752099609375,-0.0041732788085937,-0.0383118242025375,0.0496349595487117,1.7752099609375,-0.001198387122713,0.0015978495357558,-0.0014646954368799,,On the table
1670358943074133200,1.78513330078125,-0.0158805847167968,-0.0304688811302185,0.0276625398546457,1.78513330078125,-0.001198387122713,0.0005326165119186,-0.0014646954368799,,On the table
1670358943084056600,1.795056640625,-0.0203266143798828,-0.0227566622197628,0.0013452117564156,1.795056640625,-0.001198387122713,0.0005326165119186,-0.0014646954368799,,On the table
1670358943093980000,1.80497998046875,-0.0199880599975585,0.0059240236878395,-0.0363112725317478,1.80497998046875,-0.001198387122713,0.0005326165119186,-0.0003994623839389,,On the table
1670358943103903200,1.8149033203125,-0.0055217742919921,0.0152822770178318,-0.0544957183301448,1.8149033203125,-0.001198387122713,0.0005326165119186,-0.0003994623839389,,On the table
1670358943113826600,1.82482666015625,-0.0030736923217773,0.0244845654815435,-0.0607022866606712,1.82482666015625,-0.001198387122713,-0.0005326165119186,-0.0003994623839389,,On the table
1670358943123750000,1.83475,-0.0030221939086914,0.0194001719355583,-0.0292195193469524,1.83475,-0.001198387122713,-0.0015978495357558,-0.0003994623839389,,On the table
1670358943133673200,1.844673095703125,0.001739501953125,-0.0139690935611724,-0.0028695955406874,1.844673095703125,-0.001198387122713,-0.0005326165119186,0.0006657706107944,,On the table
1670358943143596500,1.854596435546875,0.0134878158569335,-0.0184125900268554,0.0254996847361326,1.854596435546875,-0.001198387122713,0.0005326165119186,-0.0003994623839389,,On the table
1670358943153519900,1.864519775390625,0.0014858245849609,-0.0298486873507499,0.0416183695197105,1.864519775390625,-0.001198387122713,0.0005326165119186,-0.0003994623839389,,On the table
1670358943163443200,1.874443115234375,-0.0126724243164062,-0.0222497545182704,0.0292011965066194,1.874443115234375,-0.0022636202629655,0.0005326165119186,-0.0003994623839389,,On the table
1670358943173366500,1.884366455078125,0.0275831222534179,-0.012421928346157,0.0287693012505769,1.884366455078125,-0.001198387122713,0.0005326165119186,-0.0003994623839389,,On the table
1670358943183289900,1.894289794921875,-0.0058546066284179,0.0113754160702228,0.021277941763401,1.894289794921875,-0.001198387122713,0.0005326165119186,-0.0003994623839389,,On the table
1670358943193213200,1.904213134765625,-0.024601936340332,-0.0006601475179195,-0.0143552059307694,1.904213134765625,-0.001198387122713,0.0005326165119186,0.0006657706107944,,On the table
1670358943203136500,1.914136474609375,0.0064306259155273,-0.014850664883852,-0.0234833788126707,1.914136474609375,-0.001198387122713,0.0005326165119186,0.0006657706107944,,On the table
1670358943213059800,1.924059814453125,-0.0407867431640625,-0.0099602416157722,-0.0207846146076917,1.924059814453125,-0.001198387122713,-0.0005326165119186,0.0006657706107944,,On the table
1670358943222983200,1.933983154296875,-0.0165529251098632,-0.019387599080801,-0.0228419378399848,1.933983154296875,-0.001198387122713,-0.0005326165119186,0.0017310036346316,,On the table
1670358943232906500,1.943906494140625,-0.028055191040039,-0.0239467248320579,-0.0202568247914314,1.943906494140625,-0.001198387122713,-0.0015978495357558,0.0017310036346316,,On the table
1670358943242829800,1.953829833984375,0.028944969177246,-0.0213631875813007,-0.0059370230883359,1.953829833984375,-0.001198387122713,-0.0015978495357558,0.0017310036346316,,On the table
1670358943252753200,1.963753173828125,0.0025510787963867,0.0141550227999687,0.0128557877615094,1.963753173828125,-0.0001331541279796,-0.0015978495357558,0.0017310036346316,,On the table
1670358943262676500,1.973676513671875,-0.0210494995117187,0.0065783336758613,0.0078822374343872,1.973676513671875,-0.001198387122713,-0.0005326165119186,0.0027962366584688,,On the table
1670358943272599800,1.983599853515625,0.0052099227905273,-0.007938727736473,0.0123108439147472,1.983599853515625,-0.001198387122713,-0.0015978495357558,0.0027962366584688,,On the table
1670358943282523400,1.9935234375,0.0145444869995117,-0.0080805234611034,-0.0139565607532858,1.9935234375,-0.001198387122713,-0.0015978495357558,0.0027962366584688,,On the table
1670358943292446700,2.00344677734375,0.0402126312255859,-0.0009473785758018,-0.0068084234371781,2.00344677734375,-0.001198387122713,-0.0015978495357558,0.0006657706107944,,On the table
1670358943302370000,2.0133701171875,-0.0193471908569335,0.0083194635808467,0.002679091412574,2.0133701171875,-0.001198387122713,-0.0005326165119186,0.0017310036346316,,On the table
1670358943312293400,2.02329345703125,-0.0190258026123046,0.0127207599580287,0.0001277511037187,2.02329345703125,-0.001198387122713,-0.0015978495357558,0.0017310036346316,,On the table
1670358943322216700,2.033216796875,-0.0092887878417968,-0.0137794241309165,-0.007092164363712,2.033216796875,-0.001198387122713,-0.0015978495357558,0.003861469682306,,On the table
1670358943332140000,2.04314013671875,0.0026426315307617,-0.0279572047293186,-0.0094806365668773,2.04314013671875,-0.001198387122713,-0.0015978495357558,0.0027962366584688,,On the table
1670358943342063400,2.0530634765625,-0.0091819763183593,-0.0159875974059104,-0.0024070881772786,2.0530634765625,-0.001198387122713,-0.0015978495357558,0.0027962366584688,,On the table
1670358943351986700,2.062986572265625,-0.0231637954711914,-0.0043204352259635,-0.0002654963172972,2.062986572265625,-0.001198387122713,-0.0026630824431777,0.003861469682306,,On the table
1670358943361910000,2.072909912109375,-0.0015792846679687,0.0047967284917831,0.0113655868917703,2.072909912109375,-0.001198387122713,-0.0015978495357558,0.003861469682306,,On the table
1670358943371833300,2.082833251953125,0.0314235687255859,0.0208286009728908,0.0016028385143727,2.082833251953125,-0.001198387122713,-0.0015978495357558,0.003861469682306,,On the table
1670358943381756700,2.092756591796875,0.0379638671875,0.0319850966334342,0.0085941022261977,2.092756591796875,-0.0022636202629655,-0.0005326165119186,0.0027962366584688,,On the table
1670358943391680000,2.102679931640625,0.0231971740722656,0.012436393648386,0.001438501290977,2.102679931640625,-0.0022636202629655,0.0005326165119186,0.0017310036346316,,On the table
1670358943401603300,2.112603271484375,-0.010167121887207,-0.011394627392292,0.0012634160229936,2.112603271484375,-0.001198387122713,-0.0015978495357558,0.0006657706107944,,On the table
1670358943411526700,2.122526611328125,-0.0217761993408203,-0.0255092158913612,-0.0012643032241612,2.122526611328125,-0.001198387122713,-0.0015978495357558,0.0017310036346316,,On the table
1670358943421450000,2.132449951171875,0.0021429061889648,-0.0298633761703968,-0.0083580333739519,2.132449951171875,-0.001198387122713,-0.0005326165119186,0.0006657706107944,,On the table
1670358943431373300,2.142373291015625,0.0044612884521484,-0.013047955930233,0.0082219988107681,2.142373291015625,-0.001198387122713,-0.0005326165119186,0.0017310036346316,,On the table
1670358943441296600,2.152296630859375,0.0185213088989257,0.0106568448245525,0.0174590349197387,2.152296630859375,-0.001198387122713,-0.0005326165119186,0.0006657706107944,,On the table
1670358943451220000,2.162219970703125,0.001723289489746,0.0410331934690475,0.0147638181224465,2.162219970703125,-0.0022636202629655,-0.0005326165119186,0.0006657706107944,,On the table
1670358943461143300,2.172143310546875,0.0158281326293945,0.0308588743209838,-0.0020192593801766,2.172143310546875,-0.001198387122713,-0.0005326165119186,0.0006657706107944,,On the table
1670358943471066600,2.182066650390625,0.032052993774414,-0.0096651017665863,-0.0067448448389768,2.182066650390625,-0.001198387122713,-0.0005326165119186,-0.0003994623839389,,On the table
1670358943480990000,2.191989990234375,-0.0155925750732421,-0.0424470007419586,0.0074532777070999,2.191989990234375,-0.0001331541279796,-0.0005326165119186,-0.0003994623839389,,On the table
1670358943490913300,2.201913330078125,-0.02239990234375,-0.0441633313894271,0.0191616602241992,2.201913330078125,-0.001198387122713,0.0005326165119186,0.0006657706107944,,On the table
1670358943500836600,2.211836669921875,-0.029092788696289,-0.034073282033205,0.0024082434829324,2.211836669921875,-0.001198387122713,0.0005326165119186,0.0006657706107944,,On the table
1670358943510760000,2.221760009765625,0.0137920379638671,-0.0100180730223655,-0.0118133695796132,2.221760009765625,-0.001198387122713,-0.0005326165119186,0.0006657706107944,,On the table
1670358943520683300,2.231683349609375,0.022984504699707,0.0277695320546627,-0.0281535107642412,2.231683349609375,-0.001198387122713,-0.0005326165119186,0.0006657706107944,,On the table
1670358943530606600,2.241606689453125,0.0249567031860351,0.0602162405848503,-0.0347990989685058,2.241606689453125,-0.001198387122713,-0.0005326165119186,0.0006657706107944,,On the table
1670358943540530000,2.251530029296875,0.0104084014892578,0.0499281510710716,-0.0247425902634859,2.251530029296875,-0.0022636202629655,0.0005326165119186,-0.0014646954368799,,On the table
1670358943550453200,2.261453369140625,0.0149469375610351,0.00918934866786,-0.0007198281236924,2.261453369140625,-0.001198387122713,0.0005326165119186,-0.0014646954368799,,On the table
1670358943560376600,2.27137646484375,0.0005655288696289,-0.0285149216651916,0.0252581089735031,2.27137646484375,-0.001198387122713,0.0005326165119186,-0.0014646954368799,,On the table
1670358943570300000,2.2812998046875,-0.0324211120605468,-0.0491019077599048,0.0343141965568065,2.2812998046875,-0.001198387122713,0.0005326165119186,-0.0014646954368799,,On the table
1670358943580223200,2.29122314453125,-0.0413026809692382,-0.062382124364376,0.0266269445419311,2.29122314453125,-0.0022636202629655,-0.0005326165119186,-0.0003994623839389,,On the table
1670358943590146600,2.301146484375,-0.0194158554077148,-0.0426691845059394,0.0049350187182426,2.301146484375,-0.001198387122713,-0.0005326165119186,0.0017310036346316,,On the table
1670358943600070000,2.31106982421875,-0.0049600601196289,0.0026263110339641,-0.0328842550516128,2.31106982421875,-0.001198387122713,-0.0005326165119186,0.0017310036346316,,On the table
1670358943609993200,2.3209931640625,0.0021886825561523,0.0401002243161201,-0.0465176664292812,2.3209931640625,-0.001198387122713,-0.0005326165119186,0.0017310036346316,,On the table
1670358943619916500,2.33091650390625,0.02099609375,0.0464303418993949,-0.0505016334354877,2.33091650390625,-0.001198387122713,-0.0005326165119186,0.0006657706107944,,On the table
1670358943629840000,2.34083984375,0.0277118682861328,0.0289964545518159,-0.026152541860938,2.34083984375,-0.001198387122713,-0.0005326165119186,0.0017310036346316,,On the table
1670358943639763200,2.35076318359375,0.0225381851196289,0.0026368647813796,0.0141766378656029,2.35076318359375,-0.001198387122713,-0.0015978495357558,-0.0003994623839389,,On the table
1670358943649686500,2.3606865234375,0.0033178329467773,-0.0162167400121688,0.0398033112287521,2.3606865234375,-0.001198387122713,-0.0005326165119186,-0.0003994623839389,,On the table
1670358943659609900,2.37060986328125,-0.0226469039916992,-0.032297596335411,0.0508695505559444,2.37060986328125,-0.001198387122713,-0.0005326165119186,-0.0014646954368799,,On the table
1670358943669533200,2.380533203125,-0.0034246444702148,-0.0411467663943767,0.0477209948003292,2.380533203125,-0.001198387122713,0.0005326165119186,-0.0003994623839389,,On the table
1670358943679456500,2.39045654296875,-0.0222120285034179,-0.0145151726901531,0.0116466097533702,2.39045654296875,-0.0022636202629655,0.0005326165119186,-0.0003994623839389,,On the table
1670358943689379800,2.4003798828125,-0.0713090896606445,-0.0025637112557888,-0.0301718674600124,2.4003798828125,-0.001198387122713,0.0079892473295331,0.0006657706107944,,On the table
1670358943699303200,2.41030322265625,0.0193891525268554,0.0089826844632625,-0.0607506372034549,2.41030322265625,-0.0001331541279796,-0.0047935484908521,0.0027962366584688,,On the table
1670358943709226500,2.4202265625,0.0002193450927734,0.0109144039452075,-0.0598892383277416,2.4202265625,-0.001198387122713,-0.0015978495357558,0.0027962366584688,,On the table
1670358943719149800,2.43014990234375,-0.0092077255249023,0.0105613395571708,-0.042656272649765,2.43014990234375,-0.001198387122713,-0.0026630824431777,0.0017310036346316,,On the table
1670358943729073200,2.4400732421875,0.0145015716552734,0.0126726813614368,-0.0019490572158247,2.4400732421875,-0.001198387122713,-0.0005326165119186,0.0006657706107944,,On the table
1670358943738996500,2.44999658203125,0.0472373962402343,0.0101406909525394,0.0286574903875589,2.44999658203125,-0.001198387122713,-0.0005326165119186,-0.0003994623839389,,On the table
1670358943748919800,2.459919921875,0.0346717834472656,0.0005842335522174,0.0516872629523277,2.459919921875,-0.001198387122713,-0.0005326165119186,-0.0003994623839389,,On the table
1670358943758843400,2.469843505859375,0.0058279037475585,0.0007122457027435,0.0531337521970272,2.469843505859375,-0.0001331541279796,-0.0005326165119186,-0.0014646954368799,,On the table
1670358943768766700,2.4797666015625,-0.008401870727539,-0.0015174262225627,0.0310005862265825,2.4797666015625,-0.0001331541279796,-0.0005326165119186,-0.0014646954368799,,On the table
1670358943778690000,2.48968994140625,-0.0106172561645507,-0.032079592347145,-0.0190308671444654,2.48968994140625,-0.001198387122713,-0.0005326165119186,-0.0003994623839389,,On the table
1670358943788613400,2.49961328125,-0.0222177505493164,-0.0338657386600971,-0.0470284856855869,2.49961328125,-0.001198387122713,-0.0005326165119186,-0.0003994623839389,,On the table
1670358943798536700,2.50953662109375,-0.0477581024169921,-0.0145250707864761,-0.0534619204699993,2.50953662109375,-0.0001331541279796,-0.0015978495357558,0.0006657706107944,,On the table
1670358943808460000,2.5194599609375,-0.016341209411621,0.0091013871133327,-0.0503664501011371,2.5194599609375,-0.001198387122713,-0.0015978495357558,0.0017310036346316,,On the table
1670358943818383400,2.52938330078125,0.0192642211914062,0.0182007662951946,-0.0190559159964323,2.52938330078125,-0.001198387122713,-0.0015978495357558,0.0017310036346316,,On the table
1670358943828306700,2.539306640625,0.0236530303955078,0.0224373694509267,0.0140883289277553,2.539306640625,-0.001198387122713,-0.0015978495357558,0.0017310036346316,,On the table
1670358943838230000,2.54922998046875,0.009124755859375,0.0124700292944908,0.0302942600101232,2.54922998046875,-0.001198387122713,-0.0005326165119186,0.0017310036346316,,On the table
1670358943848153300,2.5591533203125,0.0042610168457031,-0.0090059861540794,0.0273861922323703,2.5591533203125,-0.0001331541279796,-0.0005326165119186,0.0006657706107944,,On the table
1670358943858076700,2.56907666015625,0.0089015960693359,-0.0300211124122142,0.0127482926473021,2.56907666015625,-0.001198387122713,-0.0005326165119186,-0.0003994623839389,,On the table
1670358943868000000,2.579,0.0087528228759765,-0.0319445319473743,0.0076735964976251,2.579,-0.001198387122713,-0.0015978495357558,0.0006657706107944,,On the table
1670358943877923300,2.58892333984375,-0.0078821182250976,-0.0007551684975624,-0.0184135418385267,2.58892333984375,-0.001198387122713,-0.0005326165119186,-0.0003994623839389,,On the table
1670358943887846700,2.5988466796875,-0.0148181915283203,0.0179306603968143,-0.0205103550106287,2.5988466796875,-0.001198387122713,-0.0005326165119186,0.0017310036346316,,On the table
1670358943897770000,2.60877001953125,-0.0027933120727539,0.022274712100625,-0.024927768856287,2.60877001953125,-0.001198387122713,-0.0005326165119186,0.0006657706107944,,On the table
1670358943907693300,2.618693359375,0.0090312957763671,0.0124130472540855,-0.0245604459196329,2.618693359375,-0.001198387122713,-0.0005326165119186,0.0006657706107944,,On the table
1670358943917616600,2.62861669921875,-0.0005407333374023,0.002715740352869,-0.0077103646472096,2.62861669921875,-0.001198387122713,-0.0005326165119186,0.0006657706107944,,On the table
1670358943927540000,2.6385400390625,-0.0005321502685546,-0.0114280804991722,0.0088588818907737,2.6385400390625,-0.001198387122713,-0.0005326165119186,-0.0003994623839389,,On the table
1670358943937463300,2.64846337890625,-0.000523567199707,-0.0254391394555568,0.0204408653080463,2.64846337890625,-0.001198387122713,-0.0005326165119186,0.0006657706107944,,On the table
1670358943947386600,2.65838671875,0.001840591430664,-0.0250833630561828,0.0105268564075231,2.65838671875,-0.001198387122713,-0.0015978495357558,0.0006657706107944,,On the table
1670358943957310000,2.66831005859375,-0.0099687576293945,-0.017666857689619,0.0173699241131544,2.66831005859375,-0.001198387122713,-0.0005326165119186,0.0006657706107944,,On the table
1670358943967233300,2.6782333984375,-0.0168685913085937,-0.0033073052763938,-0.0113373380154371,2.6782333984375,-0.001198387122713,-0.0015978495357558,0.0006657706107944,,On the table
1670358943977156600,2.688156494140625,-0.0024547576904296,-0.0010678060352802,-0.0324994772672653,2.688156494140625,-0.001198387122713,-0.0015978495357558,0.0017310036346316,,On the table
1670358943987080000,2.698079833984375,0.0022964477539062,0.0058454796671867,-0.0343615189194679,2.698079833984375,-0.001198387122713,-0.0005326165119186,0.0017310036346316,,On the table
1670358943997003300,2.708003173828125,0.0140361785888671,0.0198131650686264,-0.0055708559229969,2.708003173828125,-0.0022636202629655,-0.0005326165119186,0.0006657706107944,,On the table
1670358944006926600,2.717926513671875,0.016158103942871,0.0147036351263523,0.0109627302736043,2.717926513671875,-0.001198387122713,-0.0005326165119186,0.0006657706107944,,On the table
1670358944016850000,2.727849853515625,0.0088214874267578,0.0026125833392143,0.0342868939042091,2.727849853515625,-0.0022636202629655,-0.0005326165119186,0.0006657706107944,,On the table
1670358944026773200,2.737773193359375,-0.0125246047973632,-0.016343604773283,0.026703618466854,2.737773193359375,-0.001198387122713,0.0005326165119186,0.0006657706107944,,On the table
1670358944036696600,2.747696533203125,-0.0099611282348632,-0.0395920239388942,0.0120765706524252,2.747696533203125,-0.0022636202629655,-0.0005326165119186,-0.0003994623839389,,On the table
1670358944046620000,2.757619873046875,-0.0003719329833984,-0.0295781604945659,-0.021150603890419,2.757619873046875,-0.001198387122713,-0.0005326165119186,0.0006657706107944,,On the table
1670358944056543200,2.767543212890625,-0.0027217864990234,-0.0079534240067005,-0.0396906733512878,2.767543212890625,-0.001198387122713,-0.0005326165119186,0.0006657706107944,,On the table
1670358944066466600,2.777466552734375,-0.0026769638061523,0.017919048666954,-0.0272995438426733,2.777466552734375,-0.001198387122713,-0.0005326165119186,0.0017310036346316,,On the table
1670358944076390000,2.787389892578125,0.0091438293457031,0.0315825454890728,-0.022181587293744,2.787389892578125,-0.001198387122713,-0.0005326165119186,0.0017310036346316,,On the table
1670358944086313200,2.797313232421875,0.030191421508789,0.0356990732252597,-0.0100822616368532,2.797313232421875,-0.001198387122713,-0.0005326165119186,0.0006657706107944,,On the table
1670358944096236500,2.807236572265625,0.0226211547851562,-0.0001944527029991,0.015948737040162,2.807236572265625,-0.001198387122713,-0.0005326165119186,-0.0003994623839389,,On the table
1670358944106159900,2.817159912109375,-0.0272207260131835,-0.0118312463164329,0.0251594595611095,2.817159912109375,-0.0022636202629655,0.0005326165119186,-0.0014646954368799,,On the table
1670358944116083200,2.827083251953125,-0.0267667770385742,-0.0280881784856319,-0.0012190936831757,2.827083251953125,-0.001198387122713,-0.0005326165119186,-0.0003994623839389,,On the table
1670358944126006500,2.837006591796875,-0.0051212310791015,-0.0300438143312931,-0.0083141066133975,2.837006591796875,-0.0022636202629655,-0.0005326165119186,0.0006657706107944,,On the table
1670358944135929900,2.846929931640625,-0.0238809585571289,-0.0131224319338798,-0.0035131075419485,2.846929931640625,-0.0022636202629655,-0.0005326165119186,0.0006657706107944,,On the table
1670358944145853200,2.856853271484375,-0.0022821426391601,0.005872506648302,-0.0058582532219588,2.856853271484375,-0.001198387122713,-0.0005326165119186,0.0006657706107944,,On the table
1670358944155776500,2.866776611328125,0.0142450332641601,0.022195303812623,-0.0034532034769654,2.866776611328125,-0.001198387122713,-0.0005326165119186,0.0006657706107944,,On the table
1670358944165699800,2.876699951171875,0.0328521728515625,0.0195045880973339,-0.0034437882713973,2.876699951171875,-0.001198387122713,-0.0005326165119186,-0.0003994623839389,,On the table
1670358944175623200,2.886623046875,0.004037857055664,0.0098950304090976,-0.0056871133856475,2.886623046875,-0.001198387122713,0.0005326165119186,-0.0014646954368799,,On the table
1670358944185546500,2.89654638671875,-0.0054502487182617,0.0028011798858642,-0.0008263874333351,2.89654638671875,-0.001198387122713,0.0005326165119186,-0.0014646954368799,,On the table
1670358944195469800,2.9064697265625,-0.0171365737915039,-0.0136996321380138,-0.0079279420897364,2.9064697265625,-0.0022636202629655,-0.0005326165119186,-0.0003994623839389,,On the table
1670358944205393200,2.91639306640625,-0.0168514251708984,-0.0205032005906105,-0.0100965360179543,2.91639306640625,-0.001198387122713,0.0005326165119186,-0.0003994623839389,,On the table
1670358944215316500,2.92631640625,-0.0142145156860351,-0.0225852355360984,-0.0051628639921545,2.92631640625,-0.0022636202629655,0.0005326165119186,0.0006657706107944,,On the table
1670358944225239800,2.93623974609375,-0.0351791381835937,-0.0153133086860179,-0.0004138527729082,2.93623974609375,-0.001198387122713,-0.0005326165119186,0.0017310036346316,,On the table
1670358944235163400,2.946163330078125,-0.0181045532226562,-0.0222958959639072,0.0042560105212032,2.946163330078125,-0.001198387122713,-0.0005326165119186,0.0017310036346316,,On the table
1670358944245086700,2.956086669921875,0.0151739120483398,-0.0338732153177261,0.0088480422273278,2.956086669921875,-0.001198387122713,-0.0005326165119186,0.0017310036346316,,On the table
1670358944255010000,2.966010009765625,0.0314102172851562,-0.0121768712997436,0.0133635336533188,2.966010009765625,-0.001198387122713,-0.0005326165119186,0.0006657706107944,,On the table
1670358944264933400,2.975933349609375,0.0096864700317382,0.0185800790786743,0.022411910817027,2.975933349609375,-0.001198387122713,-0.0015978495357558,0.0006657706107944,,On the table
1670358944274856700,2.985856689453125,0.0048131942749023,0.0182021968066692,0.0149235660210251,2.985856689453125,-0.001198387122713,-0.0005326165119186,0.0006657706107944,,On the table
1670358944284780000,2.995780029296875,0.0047330856323242,0.0107639729976654,-0.0065727531909942,2.995780029296875,-0.0001331541279796,-0.0005326165119186,0.0006657706107944,,On the table
1670358944294703400,3.005703369140625,0.0140771865844726,0.0082637891173362,-0.0206441394984722,3.005703369140625,-0.0001331541279796,-0.0005326165119186,-0.0003994623839389,,On the table
1670358944304626700,3.015626708984375,-0.0262012481689453,-0.0083280578255653,-0.0179926604032516,3.015626708984375,-0.001198387122713,-0.0005326165119186,-0.0003994623839389,,On the table
1670358944314550000,3.025550048828125,-0.0375432968139648,-0.0341685563325881,-0.0224520340561866,3.025550048828125,-0.001198387122713,-0.0005326165119186,0.0006657706107944,,On the table
1670358944324473300,3.035473388671875,-0.0227861404418945,-0.033873189240694,-0.0056371008977293,3.035473388671875,-0.001198387122713,-0.0005326165119186,0.0027962366584688,,On the table
1670358944334396700,3.045396728515625,-0.010629653930664,-0.0194494128227233,0.0107946312054991,3.045396728515625,-0.001198387122713,-0.0015978495357558,0.0027962366584688,,On the table
1670358944344320000,3.055320068359375,-0.0057439804077148,-0.0099771358072757,0.019988790154457,3.055320068359375,-0.001198387122713,-0.0005326165119186,0.0027962366584688,,On the table
1670358944354243300,3.065243408203125,-0.0032939910888671,-0.0007656775414943,0.0077267820015549,3.065243408203125,-0.001198387122713,-0.0015978495357558,0.003861469682306,,On the table
1670358944364166700,3.075166748046875,0.0415153503417968,0.0179203636944293,-0.0160056762397289,3.075166748046875,-0.001198387122713,-0.0005326165119186,0.0017310036346316,,On the table
1670358944374090000,3.085090087890625,0.0431795120239257,0.0340423658490181,-0.0158900097012519,3.085090087890625,-0.001198387122713,-0.0015978495357558,0.0006657706107944,,On the table
1670358944384013300,3.095013427734375,0.0071258544921875,0.028798634186387,-0.0156733132898807,3.095013427734375,-0.001198387122713,-0.0005326165119186,-0.0003994623839389,,On the table
1670358944393936600,3.1049365234375,-0.0071258544921875,0.0024423189461231,-0.0130017045885324,3.1049365234375,-0.001198387122713,0.0005326165119186,-0.0003994623839389,,On the table
1670358944403860000,3.11485986328125,-0.014073371887207,-0.0117999128997325,-0.001055369968526,3.11485986328125,-0.001198387122713,-0.0005326165119186,0.0006657706107944,,On the table
1670358944413783300,3.124783203125,-0.0138397216796875,-0.0329743959009647,0.008233344182372,3.124783203125,-0.001198387122713,-0.0015978495357558,0.0017310036346316,,On the table
1670358944423706600,3.13470654296875,-0.0206766128540039,-0.0419152453541755,0.0151146501302719,3.13470654296875,-0.001198387122713,-0.0005326165119186,0.0006657706107944,,On the table
1670358944433630000,3.1446298828125,-0.0156211853027343,-0.0296100452542305,0.019525708630681,3.1446298828125,-0.001198387122713,-0.0005326165119186,0.0017310036346316,,On the table
1670358944443553300,3.15455322265625,0.008193016052246,0.0059426724910736,0.0025608476717025,3.15455322265625,-0.0001331541279796,-0.0015978495357558,0.0027962366584688,,On the table
1670358944453476600,3.1644765625,0.0198345184326171,0.0315835550427436,-0.0045966319739818,3.1644765625,-0.001198387122713,-0.0005326165119186,0.0017310036346316,,On the table
1670358944463400000,3.17439990234375,0.0265703201293945,0.0404111668467521,-0.0233096275478601,3.17439990234375,-0.001198387122713,0.0005326165119186,0.0006657706107944,,On the table
1670358944473323300,3.1843232421875,0.0143499374389648,0.0255361124873161,-0.0229692608118057,3.1843232421875,-0.001198387122713,-0.0005326165119186,0.0006657706107944,,On the table
1670358944483246600,3.19424658203125,-0.0094461441040039,-0.0056828595697879,-0.0249901134520769,3.19424658203125,-0.001198387122713,-0.0005326165119186,0.0017310036346316,,On the table
1670358944493170000,3.204169921875,-0.0092887878417968,-0.019789669662714,-0.0104884076863527,3.204169921875,-0.001198387122713,-0.0005326165119186,0.0006657706107944,,On the table
1670358944503093200,3.21409326171875,-0.0209112167358398,-0.0501502528786659,-0.0032955766655504,3.21409326171875,-0.0022636202629655,-0.0005326165119186,0.0006657706107944,,On the table
1670358944513016600,3.2240166015625,-0.0134963989257812,-0.0494855716824531,0.0084889903664588,3.2240166015625,-0.001198387122713,-0.0005326165119186,0.0017310036346316,,On the table
1670358944522940000,3.23393994140625,-0.0156278610229492,-0.0252764225006103,0.0152630805969238,3.23393994140625,-0.001198387122713,-0.0015978495357558,0.0017310036346316,,On the table
1670358944532863200,3.24386328125,0.0152540206909179,0.0150181092321872,0.0172131620347499,3.24386328125,-0.001198387122713,-0.0015978495357558,0.0017310036346316,,On the table
1670358944542786600,3.25378662109375,0.0267763137817382,0.0240188613533973,0.005100374110043,3.25378662109375,-0.001198387122713,-0.0005326165119186,0.0017310036346316,,On the table
1670358944552710000,3.2637099609375,0.0286855697631835,0.0235503353178501,-0.0068105300888419,3.2637099609375,-0.001198387122713,-0.0005326165119186,0.0006657706107944,,On the table
1670358944562633200,3.27363330078125,0.0234966278076171,0.0185844302177429,-0.013914774172008,3.27363330078125,-0.001198387122713,-0.0015978495357558,-0.0014646954368799,,On the table
1670358944572556500,3.283556640625,-0.0051612854003906,0.0041761174798011,-0.0160865411162376,3.283556640625,-0.001198387122713,-0.0005326165119186,-0.0003994623839389,,On the table
1670358944582480000,3.29347998046875,-0.0168523788452148,-0.0217698290944099,-0.0134080369025468,3.29347998046875,-0.001198387122713,0.0005326165119186,-0.0003994623839389,,On the table
1670358944592403200,3.3034033203125,-0.0236387252807617,-0.0332529731094837,-0.0014549281913787,3.3034033203125,-0.001198387122713,-0.0005326165119186,0.0006657706107944,,On the table
1670358944602326500,3.313326416015625,-0.0161781311035156,-0.0258032642304897,0.0032322970218956,3.313326416015625,-0.001198387122713,-0.0005326165119186,0.0017310036346316,,On the table
1670358944612249900,3.323249755859375,0.0052900314331054,-0.0090554952621459,0.0101969549432396,3.323249755859375,-0.001198387122713,-0.0005326165119186,0.0017310036346316,,On the table
1670358944622173200,3.333173095703125,0.0075569152832031,0.0027020275592803,0.0146899800747632,3.333173095703125,-0.001198387122713,-0.0005326165119186,0.0017310036346316,,On the table
1670358944632096500,3.343096435546875,0.0215606689453125,0.0114962086081504,0.0091836294159293,3.343096435546875,-0.001198387122713,0.0186415780335664,0.0059919357299804,,On the table
1670358944642019800,3.353019775390625,9.5367431640625e-07,0.0180971473455429,-0.0020745794754475,3.353019775390625,-0.001198387122713,0.0069240145385265,0.0027962366584688,,On the table
1670358944651943200,3.362943115234375,-0.0023555755615234,0.0104547441005706,-0.0226698145270347,3.362943115234375,-0.0001331541279796,0.0058587817475199,0.0027962366584688,,On the table
1670358944661866500,3.372866455078125,-0.0023164749145507,-0.0086321122944355,-0.0272571314126253,3.372866455078125,-0.001198387122713,-0.0026630824431777,0.0006657706107944,,On the table
1670358944671789800,3.382789794921875,-0.0164098739624023,-0.0012838393449783,-0.0159998536109924,3.382789794921875,-0.001198387122713,-0.0101197138428688,-0.0014646954368799,,On the table
1670358944681713200,3.392713134765625,-0.0067138671875,0.0059419497847557,0.002239957684651,3.392713134765625,-0.0001331541279796,-0.0090544810518622,-0.0014646954368799,,On the table
1670358944691636500,3.402636474609375,0.012242317199707,-0.0082556419074535,0.0038923127576708,3.402636474609375,-0.001198387122713,-0.0069240145385265,-0.0003994623839389,,On the table
1670358944701559800,3.412559814453125,0.0026159286499023,-0.0223195776343345,0.0036763630341738,3.412559814453125,-0.001198387122713,-0.0015978495357558,0.0006657706107944,,On the table
1670358944711483400,3.4224833984375,-0.0044946670532226,-0.0125935673713684,0.0011084545403718,3.4224833984375,-0.001198387122713,-0.0015978495357558,0.0006657706107944,,On the table
1670358944721406700,3.43240673828125,0.0026473999023437,0.0040370002388954,-0.0037722098641097,3.43240673828125,-0.001198387122713,-0.0015978495357558,0.0006657706107944,,On the table
1670358944731330000,3.442330078125,0.0096693038940429,0.006257064640522,0.0032062407117336,3.442330078125,-0.001198387122713,-0.0015978495357558,0.0006657706107944,,On the table
1670358944741253400,3.45225341796875,0.0118637084960937,0.015609748661518,0.0006461668526753,3.45225341796875,-0.001198387122713,-0.0015978495357558,-0.0003994623839389,,On the table
1670358944751176700,3.4621767578125,0.0022439956665039,0.001148048788309,-0.0041238283738493,3.4621767578125,-0.001198387122713,-0.0005326165119186,0.0006657706107944,,On the table
1670358944761100000,3.47210009765625,-0.0119266510009765,-0.001191884279251,-0.0041032154113054,3.47210009765625,-0.001198387122713,-0.0005326165119186,-0.0003994623839389,,On the table
1670358944771023400,3.4820234375,-0.0164394378662109,-0.0200846642255783,-0.0158607140183448,3.4820234375,-0.001198387122713,-0.0005326165119186,0.0006657706107944,,On the table
1670358944780946700,3.49194677734375,-0.0185213088989257,-0.0268847867846488,-0.018000042065978,3.49194677734375,-0.001198387122713,-0.0005326165119186,0.0006657706107944,,On the table
1670358944790870000,3.5018701171875,-0.0087919235229492,-0.0148301012814044,-0.0131400115787982,3.5018701171875,-0.001198387122713,-0.0015978495357558,0.0017310036346316,,On the table
1670358944800793300,3.51179345703125,0.0054864883422851,0.0017347745597362,-0.0083614960312843,3.51179345703125,-0.0022636202629655,-0.0015978495357558,0.0017310036346316,,On the table
1670358944810716700,3.521716552734375,0.0218830108642578,0.0109569206833839,0.0081156641244888,3.521716552734375,-0.001198387122713,-0.0015978495357558,0.0017310036346316,,On the table
1670358944820640000,3.531639892578125,0.0168075561523437,0.0201283153146505,0.0126433940604329,3.531639892578125,-0.001198387122713,-0.0005326165119186,0.0006657706107944,,On the table
1670358944830563300,3.541563232421875,0.0165271759033203,0.0127609334886074,0.0076734479516744,3.541563232421875,-0.001198387122713,-0.0005326165119186,-0.0003994623839389,,On the table
1670358944840486700,3.551486572265625,0.0068292617797851,0.0008052289485931,0.0052448553033173,3.551486572265625,-0.001198387122713,0.0005326165119186,-0.0003994623839389,,On the table
1670358944850410000,3.561409912109375,0.0090713500976562,-0.0085956566035747,-0.0042099221609532,3.561409912109375,-0.001198387122713,0.0005326165119186,-0.0003994623839389,,On the table
1670358944860333300,3.571333251953125,-0.0052127838134765,-0.0179428271949291,-0.0041878740303218,3.571333251953125,-0.001198387122713,-0.0005326165119186,0.0006657706107944,,On the table
1670358944870256600,3.581256591796875,-0.0145511627197265,-0.0206853561103343,-0.0104091111570596,3.581256591796875,-0.001198387122713,0.0079892473295331,0.0070571689866483,,On the table
1670358944880180000,3.591179931640625,-0.0308008193969726,0.0002763606607913,-0.0190881602466106,3.591179931640625,-0.001198387122713,0.0058587817475199,0.0059919357299804,,On the table
1670358944890103300,3.601103271484375,0.0097551345825195,-0.0095275305211544,-0.0279309656471014,3.601103271484375,-0.0001331541279796,0.0026630824431777,0.003861469682306,,On the table
1670358944900026600,3.611026611328125,0.0449275970458984,0.004902321845293,-0.011230600066483,3.611026611328125,-0.001198387122713,-0.0026630824431777,-0.0014646954368799,,On the table
1670358944909950000,3.620949951171875,0.0064916610717773,0.0310753975063562,0.0096965739503502,3.620949951171875,-0.001198387122713,-0.0047935484908521,-0.0035951614845544,,On the table
1670358944919873300,3.630873291015625,-0.021881103515625,0.0309011545032262,0.0232082977890968,3.630873291015625,-0.001198387122713,-0.0047935484908521,-0.0035951614845544,,On the table
1670358944929796600,3.640796630859375,0.0138177871704101,-0.0141286961734294,0.0106867179274559,3.640796630859375,-0.001198387122713,-0.0037283156998455,-0.0025299284607172,,On the table
1670358944939720000,3.650719970703125,0.015944480895996,-0.0467332489788532,-0.0014202435268089,3.650719970703125,-0.001198387122713,-0.0015978495357558,-0.0014646954368799,,On the table
1670358944949643300,3.660643310546875,-0.0220098495483398,-0.0434610769152641,-0.0086143286898732,3.660643310546875,-0.001198387122713,-0.0015978495357558,-0.0014646954368799,,On the table
1670358944959566600,3.670566650390625,-0.035776138305664,-0.0263160578906536,-0.0108744390308856,3.670566650390625,-0.001198387122713,-0.0005326165119186,0.0006657706107944,,On the table
1670358944969490000,3.680489990234375,-0.0210475921630859,-0.0001375339925289,-0.0178079884499311,3.680489990234375,-0.001198387122713,-0.0005326165119186,0.0017310036346316,,On the table
1670358944979413200,3.690413330078125,0.021702766418457,0.0304187573492527,-0.0200178269296884,3.690413330078125,-0.001198387122713,-0.0015978495357558,0.0006657706107944,,On the table
1670358944989336600,3.700336669921875,0.018986701965332,0.0345546826720237,-0.0079545490443706,3.700336669921875,-0.001198387122713,-0.0005326165119186,0.0006657706107944,,On the table
1670358944999260000,3.710260009765625,0.0092477798461914,0.0245913192629814,0.0015521263703703,3.710260009765625,-0.001198387122713,-0.0005326165119186,-0.0003994623839389,,On the table
1670358945009183200,3.720183349609375,-0.0073957443237304,-0.0135756023228168,0.0085448063910007,3.720183349609375,-0.001198387122713,-0.0005326165119186,0.0006657706107944,,On the table
1670358945019106600,3.7301064453125,-0.0096282958984375,-0.0275508686900138,0.0107098342850804,3.7301064453125,-0.001198387122713,-0.0005326165119186,0.0006657706107944,,On the table
1670358945029030000,3.74002978515625,-0.0165338516235351,-0.0318710021674633,0.0034165577962994,3.74002978515625,-0.001198387122713,-0.0005326165119186,0.0006657706107944,,On the table
1670358945038953200,3.749953125,0.0826711654663086,-0.0391954220831394,0.0156035609543323,3.749953125,-0.0022636202629655,0.0047935484908521,0.0081224022433161,,On the table
1670358945048876500,3.75987646484375,-0.0859546661376953,-0.0041008852422237,-0.019626535475254,3.75987646484375,-0.0022636202629655,0.0037283156998455,0.0091876350343227,,On the table
1670358945058799900,3.7697998046875,0.0238294601440429,0.0096207484602928,-0.0216001272201538,3.7697998046875,-0.001198387122713,0.0005326165119186,0.0049267029389739,,On the table
1670358945068723200,3.77972314453125,0.0516986846923828,0.0354062654078006,-0.0119689796119928,3.77972314453125,-0.001198387122713,-0.0015978495357558,-0.0003994623839389,,On the table
1670358945078646500,3.789646484375,0.0155057907104492,0.051648736000061,0.0045683030039072,3.789646484375,-0.001198387122713,-0.0015978495357558,-0.0035951614845544,,On the table
1670358945088569900,3.79956982421875,-0.0177288055419921,0.0275760851800441,0.0209329426288604,3.79956982421875,-0.001198387122713,-0.0005326165119186,-0.0035951614845544,,On the table
1670358945098493200,3.8094931640625,-0.0103654861450195,-0.0102286860346794,0.0133668147027492,3.8094931640625,-0.0001331541279796,-0.0015978495357558,-0.0035951614845544,,On the table
1670358945108416500,3.81941650390625,-0.0054807662963867,-0.0569285675883293,-0.0011398703791201,3.81941650390625,-0.0001331541279796,-0.0015978495357558,-0.0025299284607172,,On the table
1670358945118339800,3.82933984375,-0.0242338180541992,-0.0606561116874218,-0.0036275112070143,3.82933984375,-0.001198387122713,-0.0015978495357558,-0.0003994623839389,,On the table
1670358945128263200,3.83926318359375,-0.0308961868286132,-0.038513395935297,-0.013140358030796,3.83926318359375,-0.001198387122713,-0.0015978495357558,0.0006657706107944,,On the table
1670358945138186500,3.8491865234375,0.0167303085327148,0.0162380263209342,-0.0083613311871886,3.8491865234375,-0.001198387122713,-0.0015978495357558,0.0006657706107944,,On the table
1670358945148109800,3.85910986328125,0.0211620330810546,0.0465213842689991,-0.013084172271192,3.85910986328125,-0.001198387122713,-0.0015978495357558,0.0006657706107944,,On the table
1670358945158033200,3.869033203125,0.0255203247070312,0.0552030019462108,-0.0152697740122675,3.869033203125,-0.001198387122713,-0.0005326165119186,-0.0003994623839389,,On the table
1670358945167956500,3.87895654296875,0.022740364074707,0.0214429311454296,-0.0127078341320157,3.87895654296875,-0.001198387122713,-0.0005326165119186,-0.0014646954368799,,On the table
1670358945177879800,3.8888798828125,-0.0200386047363281,-0.0118574388325214,-0.0031219294760376,3.8888798828125,-0.001198387122713,-0.0005326165119186,-0.0003994623839389,,On the table
1670358945187803400,3.898803466796875,-0.0385494232177734,-0.046958353370428,0.0039491541683673,3.898803466796875,-0.0001331541279796,-0.0005326165119186,-0.0003994623839389,,On the table
1670358945197726700,3.908726806640625,-0.0237741470336914,-0.0604802072048187,0.0061907740309834,3.908726806640625,-0.001198387122713,-0.0005326165119186,0.0017310036346316,,On the table
1670358945207650000,3.918650146484375,-0.0163116455078125,-0.0407989360392093,0.0082920650020241,3.918650146484375,-0.001198387122713,-0.0015978495357558,0.0017310036346316,,On the table
1670358945217573400,3.928573486328125,-0.0042629241943359,0.0067180022597312,0.0198835078626871,3.928573486328125,-0.001198387122713,-0.0005326165119186,0.0027962366584688,,On the table
1670358945227496700,3.93849658203125,0.0264291763305664,0.0417681783437728,-0.0016959914937615,3.93849658203125,-0.001198387122713,-0.0005326165119186,0.0017310036346316,,On the table
1670358945237420000,3.948419921875,0.0424776077270507,0.0386482775211334,-0.0182047169655561,3.948419921875,-0.001198387122713,-0.0005326165119186,0.0006657706107944,,On the table
1670358945247343400,3.95834326171875,0.013503074645996,0.0239055827260017,-0.0273711290210485,3.95834326171875,-0.0001331541279796,-0.0005326165119186,-0.0003994623839389,,On the table
1670358945257266700,3.9682666015625,-0.0032110214233398,-0.0094358325004577,-0.0151852825656533,3.9682666015625,-0.001198387122713,-0.0005326165119186,-0.0003994623839389,,On the table
1670358945267190000,3.97818994140625,-0.0196466445922851,-0.0327993370592594,-0.01026919670403,3.97818994140625,-0.001198387122713,-0.0005326165119186,-0.0003994623839389,,On the table
1670358945277113300,3.98811328125,-0.0381641387939453,-0.0535208769142627,0.003987165633589,3.98811328125,-0.001198387122713,-0.0005326165119186,0.0006657706107944,,On the table
1670358945287036700,3.99803662109375,-0.0210399627685546,-0.0410222485661506,0.0250725783407688,3.99803662109375,-0.001198387122713,-0.0005326165119186,0.0017310036346316,,On the table
1670358945296960000,4.0079599609375,0.0052213668823242,-0.021562322974205,0.0222510248422622,4.0079599609375,-0.001198387122713,-0.0005326165119186,0.0006657706107944,,On the table
1670358945306883300,4.01788330078125,0.031045913696289,0.0093510262668132,0.0124093070626258,4.01788330078125,-0.0022636202629655,-0.0005326165119186,0.0006657706107944,,On the table
1670358945316806700,4.027806640625,0.0187501907348632,0.0396461933851242,0.0050876960158348,4.027806640625,-0.001198387122713,-0.0005326165119186,0.0017310036346316,,On the table
1670358945326730000,4.03772998046875,0.020792007446289,0.0295979604125022,-0.0162452049553394,4.03772998046875,-0.001198387122713,-0.0005326165119186,-0.0003994623839389,,On the table
1670358945336653300,4.0476533203125,0.022801399230957,0.0126505307853221,-0.0254447851330041,4.0476533203125,-0.001198387122713,-0.0005326165119186,-0.0003994623839389,,On the table
1670358945346576600,4.05757666015625,-0.0011329650878906,-0.0039114505052566,-0.0320325084030628,4.05757666015625,-0.001198387122713,0.0005326165119186,-0.0014646954368799,,On the table
1670358945356500000,4.0675,-0.0317363739013671,-0.0273670367896556,-0.0150578757748007,4.0675,-0.001198387122713,-0.0005326165119186,-0.0003994623839389,,On the table
1670358945366423300,4.07742333984375,-0.0312070846557617,-0.0387568920850753,-0.0055357869714498,4.07742333984375,-0.001198387122713,-0.0015978495357558,0.0006657706107944,,On the table
1670358945376346600,4.0873466796875,-0.0141992568969726,-0.0288599021732807,0.0133527824655175,4.0873466796875,-0.001198387122713,-0.0005326165119186,0.0017310036346316,,On the table
1670358945386270000,4.09727001953125,-0.0139636993408203,-0.0050974935293197,0.0129791470244526,4.09727001953125,-0.001198387122713,-0.0015978495357558,0.0027962366584688,,On the table
1670358945396193300,4.107193359375,0.0380887985229492,0.0063881501555442,0.017425812780857,4.107193359375,-0.001198387122713,-0.0005326165119186,0.003861469682306,,On the table
1670358945406116600,4.11711669921875,-0.0426368713378906,0.0080541931092739,0.0028509732801467,4.11711669921875,-0.001198387122713,-0.0015978495357558,0.0059919357299804,,On the table
1670358945416040000,4.1270400390625,0.0428724288940429,0.0147124901413917,-0.0184446368366479,4.1270400390625,-0.001198387122713,-0.0005326165119186,0.0027962366584688,,On the table
1670358945425963300,4.13696337890625,0.0468702316284179,0.0122494436800479,-0.0133712626993656,4.13696337890625,-0.001198387122713,0.0005326165119186,-0.0014646954368799,,On the table
1670358945435886600,4.146886474609375,0.0154676437377929,0.0146415531635284,-0.0035683570895344,4.146886474609375,-0.001198387122713,0.0015978495357558,-0.0025299284607172,,On the table
1670358945445810000,4.156809814453125,-0.0460338592529296,0.0075715780258178,-0.0012014451203867,4.156809814453125,-0.001198387122713,-0.0005326165119186,-0.0025299284607172,,On the table
1670358945455733200,4.166733154296875,-0.028778076171875,-0.0231420621275901,-0.0036880550906062,4.166733154296875,-0.001198387122713,-0.0015978495357558,-0.0003994623839389,,On the table
1670358945465656600,4.176656494140625,-0.0070991516113281,-0.0463801100850105,-0.0107413623481988,4.176656494140625,-0.001198387122713,-0.0005326165119186,0.0006657706107944,,On the table
1670358945475580000,4.186579833984375,8.48770141601e-05,-0.052844937890768,-0.0177800823003053,4.186579833984375,-0.001198387122713,-0.0015978495357558,0.0017310036346316,,On the table
1670358945485503200,4.196503173828125,-0.002272605895996,-0.0142405815422534,0.0106312865391373,4.196503173828125,-0.0022636202629655,-0.0015978495357558,-0.0003994623839389,,On the table
1670358945495426600,4.206426513671875,0.018965721130371,0.0424618497490882,0.0198281817138195,4.206426513671875,-0.001198387122713,-0.0005326165119186,0.0006657706107944,,On the table
1670358945505350000,4.216349853515625,0.023360252380371,0.0369748137891292,0.0122794453054666,4.216349853515625,-0.0022636202629655,-0.0015978495357558,0.0006657706107944,,On the table
1670358945515273200,4.226273193359375,0.030038833618164,0.0176518559455871,-0.0138844233006238,4.226273193359375,-0.001198387122713,-0.0005326165119186,-0.0014646954368799,,On the table
1670358945525196500,4.236196533203125,0.0059823989868164,-0.003807570785284,-0.0254789050668478,4.236196533203125,-0.001198387122713,-0.0005326165119186,-0.0003994623839389,,On the table
1670358945535120000,4.246119873046875,-0.0365171432495117,-0.0272648930549621,-0.0203912686556577,4.246119873046875,-0.001198387122713,-0.0005326165119186,-0.0003994623839389,,On the table
1670358945545043200,4.256043212890625,-0.040618896484375,-0.0457231253385543,-0.0106773227453231,4.256043212890625,-0.001198387122713,-0.0005326165119186,0.0006657706107944,,On the table
1670358945554966500,4.265966552734375,-0.0234546661376953,-0.0286433510482311,0.0012307956349104,4.265966552734375,-0.0001331541279796,-0.0005326165119186,0.0017310036346316,,On the table
1670358945564889900,4.275889892578125,0.0075578689575195,-0.0094926916062831,0.0104814115911722,4.275889892578125,-0.001198387122713,-0.0015978495357558,0.0017310036346316,,On the table
1670358945574813200,4.285813232421875,0.1723165512084961,-0.0030567422509193,0.0392459593713283,4.285813232421875,-0.001198387122713,0.0069240145385265,0.0081224022433161,,On the table
1670358945584736500,4.295736572265625,-0.1297149658203125,0.0291828028857707,-0.0267938394099473,4.295736572265625,-0.001198387122713,0.0058587817475199,0.0081224022433161,,On the table
1670358945594659800,4.305659912109375,0.0726680755615234,0.0002586059272289,-0.0287509392946958,4.305659912109375,-0.001198387122713,-0.0005326165119186,0.0017310036346316,,On the table
1670358945604583200,4.315583251953125,0.0997266769409179,0.0244624875485897,-0.0241241715848445,4.315583251953125,-0.0022636202629655,-0.0058587817475199,-0.006790860556066,,On the table
1670358945614506500,4.325506591796875,0.020334243774414,0.0576852932572364,0.0064399815164506,4.325506591796875,-0.001198387122713,-0.0047935484908521,-0.006790860556066,,On the table
1670358945624429800,4.335429931640625,-0.0671586990356445,0.0310535598546266,0.0320926122367382,4.335429931640625,-0.001198387122713,-0.0015978495357558,-0.0025299284607172,,On the table
1670358945634353200,4.345353271484375,-0.0212831497192382,-0.0376373119652271,0.0080570727586746,4.345353271484375,-0.001198387122713,0.0005326165119186,-0.0014646954368799,,On the table
1670358945644276500,4.3552763671875,0.0120496749877929,-0.0864418894052505,-0.0086142113432288,4.3552763671875,-0.001198387122713,-0.0005326165119186,-0.0003994623839389,,On the table
1670358945654199800,4.36519970703125,-0.035262107849121,-0.0731886774301529,-0.0108748562633991,4.36519970703125,-0.0022636202629655,-0.0005326165119186,-0.0003994623839389,,On the table
1670358945664123400,4.375123291015625,-0.0558748245239257,-0.0202149040997028,-0.0014225245686247,4.375123291015625,-0.001198387122713,-0.0015978495357558,0.0006657706107944,,On the table
1670358945674046700,4.385046630859375,0.0062999725341796,0.0388396754860878,-0.0062610432505607,4.385046630859375,-0.001198387122713,-0.0015978495357558,0.0017310036346316,,On the table
1670358945683970000,4.394969970703125,0.0533065795898437,0.0663907974958419,-0.0132709667086601,4.394969970703125,-0.0001331541279796,-0.0005326165119186,0.0006657706107944,,On the table
1670358945693893400,4.404893310546875,0.050063133239746,0.0583553612232208,-0.0271282568573951,4.404893310546875,-0.001198387122713,0.0005326165119186,-0.0014646954368799,,On the table
1670358945703816700,4.414816650390625,-0.0096588134765625,0.0245427787303924,-0.0195545945316553,4.414816650390625,-0.001198387122713,0.0005326165119186,-0.0014646954368799,,On the table
1670358945713740000,4.424739990234375,-0.037764549255371,-0.0347203388810157,-0.0192768070846796,4.424739990234375,-0.001198387122713,-0.0005326165119186,-0.0003994623839389,,On the table
1670358945723663400,4.434663330078125,-0.0300683975219726,-0.0624765157699584,0.0021963322069495,4.434663330078125,-0.001198387122713,-0.0005326165119186,0.0006657706107944,,On the table
1670358945733586700,4.444586669921875,-0.0201454162597656,-0.0497256778180599,0.0137863848358392,4.444586669921875,-0.001198387122713,-0.0015978495357558,0.0006657706107944,,On the table
1670358945743510000,4.454510009765625,-0.0268764495849609,-0.0325792208313941,0.0417751185595989,4.454510009765625,-0.001198387122713,-0.0005326165119186,0.0017310036346316,,On the table
1670358945753433300,4.464433349609375,0.0206804275512695,0.0078370012342929,0.0362166464328765,4.464433349609375,-0.001198387122713,-0.0015978495357558,0.0017310036346316,,On the table
1670358945763356700,4.474356689453125,0.0438919067382812,0.0476825796067714,0.0071952743455767,4.474356689453125,-0.001198387122713,-0.0015978495357558,0.0006657706107944,,On the table
1670358945773280000,4.484280029296875,0.0431604385375976,0.0587003901600837,-0.016528321430087,4.484280029296875,-0.001198387122713,-0.0005326165119186,-0.0003994623839389,,On the table
1670358945783203300,4.494203369140625,-0.0093803405761718,0.0366597808897495,-0.0350429341197013,4.494203369140625,-0.0022636202629655,0.0005326165119186,-0.0014646954368799,,On the table
1670358945793126700,4.504126708984375,-0.0233573913574218,-0.0086719803512096,-0.0391151271760463,4.504126708984375,-0.001198387122713,0.0005326165119186,-0.0003994623839389,,On the table
1670358945803050000,4.514050048828125,-0.0206127166748046,-0.039114873856306,-0.0314446724951267,4.514050048828125,-0.001198387122713,-0.0005326165119186,-0.0003994623839389,,On the table
1670358945812973300,4.523973388671875,-0.0320472717285156,-0.0433452613651752,-0.0075166746973991,4.523973388671875,-0.0022636202629655,-0.0015978495357558,0.0017310036346316,,On the table
1670358945822896600,4.533896728515625,-0.0268030166625976,-0.0286606959998607,0.0254352521151304,4.533896728515625,-0.001198387122713,-0.0015978495357558,0.0017310036346316,,On the table
1670358945832820000,4.543820068359375,0.0066194534301757,-0.0283541940152645,0.0272157862782478,4.543820068359375,-0.001198387122713,-0.0015978495357558,0.0017310036346316,,On the table
1670358945842743300,4.553743408203125,0.0418415069580078,0.0072805024683475,0.02671405300498,4.553743408203125,-0.001198387122713,-0.0005326165119186,0.0017310036346316,,On the table
1670358945852666600,4.56366650390625,0.0293664932250976,0.0447797998785972,0.0191540196537971,4.56366650390625,-0.001198387122713,-0.0005326165119186,0.0006657706107944,,On the table
1670358945862590000,4.57358984375,0.0265216827392578,0.0299348980188369,-0.0024133305996656,4.57358984375,-0.001198387122713,-0.0005326165119186,-0.0003994623839389,,On the table
1670358945872513300,4.58351318359375,0.0048799514770507,0.0060181841254234,-0.0211626812815666,4.58351318359375,-0.001198387122713,0.0005326165119186,-0.0014646954368799,,On the table
1670358945882436600,4.5934365234375,-0.0164012908935546,-0.0034695751965045,-0.0254662204533815,4.5934365234375,-0.001198387122713,0.0005326165119186,-0.0003994623839389,,On the table
1670358945892360000,4.60335986328125,-0.0231952667236328,-0.0152577497065067,-0.0298010185360908,4.60335986328125,-0.001198387122713,-0.0005326165119186,0.0006657706107944,,On the table
1670358945902283300,4.613283203125,-0.0204534530639648,-0.0456938706338405,-0.0152191398665308,4.613283203125,-0.001198387122713,-0.0005326165119186,0.0006657706107944,,On the table
1670358945912206600,4.62320654296875,-0.0224695205688476,-0.0427479371428489,0.0060833869501948,4.62320654296875,-0.001198387122713,-0.0015978495357558,0.0017310036346316,,On the table
1670358945922130000,4.6331298828125,-0.015028953552246,-0.0046207681298255,0.0294893998652696,4.6331298828125,-0.001198387122713,-0.0005326165119186,0.0027962366584688,,On the table
1670358945932053200,4.64305322265625,0.0087757110595703,0.0140265189111232,0.021883113309741,4.64305322265625,-0.001198387122713,-0.0005326165119186,0.0027962366584688,,On the table
1670358945941976600,4.6529765625,-0.0479068756103515,0.0179207399487495,0.0087652346119284,4.6529765625,-0.0022636202629655,-0.0101197138428688,0.0059919357299804,,On the table
1670358945951900000,4.66289990234375,0.0447578430175781,-0.0061046704649925,-0.0240978337824344,4.66289990234375,-0.001198387122713,0.0026630824431777,0.0017310036346316,,On the table
1670358945961823200,4.6728232421875,0.0675678253173828,0.0106236711144447,-0.0281465165317058,4.6728232421875,-0.001198387122713,0.0026630824431777,-0.0014646954368799,,On the table
1670358945971746600,4.68274658203125,0.0452432632446289,0.0318873226642608,-0.0158447809517383,4.68274658203125,-0.001198387122713,0.0005326165119186,-0.0025299284607172,,On the table
1670358945981670000,4.692669921875,-0.0379543304443359,0.0244269594550132,-0.0038510577287524,4.692669921875,-0.001198387122713,-0.0005326165119186,-0.0014646954368799,,On the table
1670358945991593200,4.70259326171875,-0.0161209106445312,-0.0065675936639308,0.0008761151693761,4.70259326171875,-0.001198387122713,-0.0005326165119186,-0.0003994623839389,,On the table
1670358946001516500,4.7125166015625,-0.001718521118164,-0.039401140064001,0.0078795505687594,4.7125166015625,-0.0022636202629655,-0.0005326165119186,-0.0003994623839389,,On the table
1670358946011439900,4.72243994140625,-0.013467788696289,-0.0435237884521484,0.0077000982128083,4.72243994140625,-0.001198387122713,-0.0005326165119186,0.0006657706107944,,On the table
1670358946021363200,4.73236328125,-0.0415096282958984,-0.0310888215899467,0.0145908100530505,4.73236328125,-0.0001331541279796,-0.0005326165119186,0.0006657706107944,,On the table
1670358946031286500,4.74228662109375,-0.0219745635986328,-0.0024752467870712,0.0142989736050367,4.74228662109375,-0.0022636202629655,-0.0005326165119186,0.0017310036346316,,On the table
1670358946041209900,4.7522099609375,0.0349235534667968,0.0233059115707874,-0.0071874586865305,4.7522099609375,-0.001198387122713,-0.0005326165119186,0.0017310036346316,,On the table
1670358946051133200,4.76213330078125,0.0366973876953125,0.022849254310131,-0.0094713494181633,4.76213330078125,-0.001198387122713,-0.0005326165119186,0.0006657706107944,,On the table
1670358946061056500,4.772056396484375,0.0031080245971679,0.0295698419213295,-0.016428280621767,4.772056396484375,-0.001198387122713,-0.0005326165119186,-0.0003994623839389,,On the table
1670358946070979800,4.781979736328125,-0.0252103805541992,0.00309769064188,-0.013744062744081,4.781979736328125,-0.001198387122713,0.0005326165119186,0.0006657706107944,,On the table
1670358946080903200,4.791903076171875,-0.0177230834960937,-0.0229332521557807,-0.0229853279888629,4.791903076171875,-0.001198387122713,-0.0005326165119186,0.0006657706107944,,On the table
1670358946090826500,4.801826416015625,-0.0127172470092773,-0.0297888815402984,-0.0155836967751383,4.801826416015625,-0.001198387122713,-0.0005326165119186,0.0017310036346316,,On the table
1670358946100749800,4.811749755859375,-0.0054397583007812,-0.0272109992802143,0.0034723419230431,4.811749755859375,-0.001198387122713,-0.0005326165119186,0.0027962366584688,,On the table
1670358946110673200,4.821673095703125,-0.0147714614868164,-0.0105427578091621,0.0198552254587411,4.821673095703125,-0.001198387122713,-0.0005326165119186,0.0027962366584688,,On the table
1670358946120596500,4.831596435546875,0.0090293884277343,0.0106617584824562,0.0147650744765996,4.831596435546875,-0.001198387122713,-0.0005326165119186,0.0017310036346316,,On the table
1670358946130519800,4.841519775390625,0.0442123413085937,0.0292602740228176,0.0144708724692463,4.841519775390625,-0.001198387122713,-0.0005326165119186,0.0006657706107944,,On the table
1670358946140443400,4.851443359375,0.0293426513671875,0.017029583454132,0.0001512290909886,4.851443359375,-0.001198387122713,0.0005326165119186,-0.0003994623839389,,On the table
1670358946150366700,4.86136669921875,0.0076532363891601,0.0120694003999233,-0.0186408553272485,4.86136669921875,-0.001198387122713,0.0005326165119186,-0.0003994623839389,,On the table
1670358946160290000,4.8712900390625,0.0004596710205078,-0.0092969834804534,-0.0325116142630577,4.8712900390625,-0.001198387122713,-0.0005326165119186,-0.0003994623839389,,On the table
1670358946170213400,4.88121337890625,-0.016036033630371,-0.0137153938412666,-0.0178845468908548,4.88121337890625,-0.001198387122713,-0.0005326165119186,-0.0014646954368799,,On the table
1670358946180136700,4.89113671875,-0.0228357315063476,-0.0181631445884704,0.0035653945524245,4.89113671875,-0.001198387122713,-0.0005326165119186,-0.0003994623839389,,On the table
1670358946190060000,4.90106005859375,-0.0130319595336914,-0.0320619642734527,0.0058134039863944,4.90106005859375,-0.001198387122713,-0.0005326165119186,0.0006657706107944,,On the table
1670358946199983400,4.9109833984375,0.0013189315795898,-0.0198180489242076,0.0102765224874019,4.9109833984375,-0.001198387122713,-0.0015978495357558,0.0006657706107944,,On the table
1670358946209906700,4.92090673828125,-0.0010595321655273,0.0086077079176902,0.0075985910370945,4.92090673828125,-0.001198387122713,-0.0015978495357558,0.0017310036346316,,On the table
1670358946219830000,4.930830078125,0.0107355117797851,0.0107515752315521,0.0003571617417037,4.930830078125,-0.001198387122713,-0.0005326165119186,0.0006657706107944,,On the table
1670358946229753300,4.94075341796875,0.0058450698852539,0.015215266495943,-0.0138302370905876,4.94075341796875,-0.001198387122713,-0.0005326165119186,0.0006657706107944,,On the table
1670358946239676700,4.9506767578125,0.005746841430664,0.0053682625293731,-0.0111893201246857,4.9506767578125,-0.001198387122713,0.0005326165119186,0.0017310036346316,,On the table
1670358946249600000,4.96060009765625,0.0009403228759765,0.0052105709910392,-0.0085924165323376,4.96060009765625,-0.001198387122713,0.0005326165119186,0.0006657706107944,,On the table
1670358946259523300,4.9705234375,0.1658105850219726,-0.0378593504428863,0.0084034698083996,4.9705234375,-0.001198387122713,0.0037283156998455,0.0059919357299804,,On the table
1670358946269446700,4.98044677734375,-0.1950025558471679,-0.0172296985983848,-0.0172837730497121,4.98044677734375,-0.001198387122713,0.0037283156998455,0.012383334338665,,On the table
1670358946279370000,4.990369873046875,0.0226011276245117,-0.040772221982479,-0.0099771497771143,4.990369873046875,-0.001198387122713,-0.0005326165119186,0.0027962366584688,,On the table
1670358946289293300,5.000293212890625,0.0340051651000976,0.002959918230772,-0.0122145311906933,5.000293212890625,-0.001198387122713,-0.0005326165119186,-0.006790860556066,,On the table
1670358946299216600,5.010216552734375,0.0475740432739257,0.0528239235281944,0.0181511882692575,5.010216552734375,-0.001198387122713,-0.0047935484908521,-0.0046603945083916,,On the table
1670358946309140000,5.020139892578125,-0.0121068954467773,0.0568953827023506,0.0224086660891771,5.020139892578125,-0.001198387122713,-0.0015978495357558,-0.0025299284607172,,On the table
1670358946319063300,5.030063232421875,0.0187177658081054,0.0160404630005359,0.0054981997236609,5.030063232421875,-0.001198387122713,-0.0005326165119186,-0.0014646954368799,,On the table
1670358946328986600,5.039986572265625,0.0207624435424804,-0.0312002040445804,-0.0158415324985981,5.039986572265625,-0.001198387122713,-0.0005326165119186,-0.0014646954368799,,On the table
1670358946338910000,5.049909912109375,-0.021982192993164,-0.0588090829551219,-0.025047842413187,5.049909912109375,-0.001198387122713,-0.0005326165119186,-0.0014646954368799,,On the table
1670358946348833300,5.059833251953125,-0.0663709640502929,-0.0460163988173007,-0.0081896306946873,5.059833251953125,-0.001198387122713,-0.0005326165119186,-0.0003994623839389,,On the table
1670358946358756600,5.069756591796875,-0.0157985687255859,-0.014798454940319,0.0082846274599432,5.069756591796875,-0.001198387122713,-0.0015978495357558,0.0017310036346316,,On the table
1670358946368680000,5.079679931640625,0.0221519470214843,0.0111880861222743,0.0057428646832704,5.079679931640625,-0.001198387122713,-0.0005326165119186,0.0017310036346316,,On the table
1670358946378603300,5.089603271484375,0.0359163284301757,0.0321333706378936,0.0103096142411232,5.089603271484375,-0.0022636202629655,-0.0005326165119186,0.0006657706107944,,On the table
1670358946388527400,5.09952734375,0.0141181945800781,0.0174992531538009,-0.0063992203213274,5.09952734375,-0.001198387122713,-0.0005326165119186,-0.0003994623839389,,On the table
1670358946398451200,5.109451171875,-0.0026063919067382,-0.0039576217532157,-0.0110518019646406,5.109451171875,-0.001198387122713,-0.0005326165119186,-0.0003994623839389,,On the table
1670358946408374500,5.11937451171875,-0.0214080810546875,-0.0179902203381061,-0.0178794022649526,5.11937451171875,-0.001198387122713,0.0005326165119186,-0.0003994623839389,,On the table
1670358946418297900,5.1292978515625,-0.0116291046142578,-0.0271808207035064,-0.0129184322431683,5.1292978515625,-0.001198387122713,-0.0005326165119186,0.0006657706107944,,On the table
1670358946428221200,5.13922119140625,-0.0208568572998046,-0.0244404710829257,-0.0152097940444946,5.13922119140625,-0.001198387122713,-0.0015978495357558,0.0006657706107944,,On the table
1670358946438144500,5.14914453125,-0.0181541442871093,-0.0100710019469261,0.0108036817982792,5.14914453125,-0.001198387122713,-0.0015978495357558,0.0017310036346316,,On the table
1670358946448067800,5.15906787109375,0.01983642578125,0.00887306407094,0.0082199349999427,5.15906787109375,-0.001198387122713,-0.0005326165119186,0.0006657706107944,,On the table
1670358946457991200,5.1689912109375,0.0242176055908203,0.0157236196100711,-0.0014903913252055,5.1689912109375,-0.001198387122713,-0.0015978495357558,0.0006657706107944,,On the table
1670358946467914500,5.17891455078125,-0.0044527053833007,0.0178518742322921,-0.0015136807924136,5.17891455078125,-0.001198387122713,-0.0005326165119186,-0.0003994623839389,,On the table
1670358946477837800,5.188837890625,-0.0090894699096679,-0.0083219893276691,-0.0062476866878569,5.188837890625,-0.001198387122713,-0.0005326165119186,-0.0003994623839389,,On the table
1670358946487761200,5.19876123046875,-0.0042266845703125,-0.0176737233996391,-0.0156139004975557,5.19876123046875,-0.001198387122713,-0.0005326165119186,0.0006657706107944,,On the table
1670358946497684500,5.2086845703125,-0.0230007171630859,-0.0315807051956653,-0.0083351368084549,5.2086845703125,-0.001198387122713,-0.0005326165119186,0.0006657706107944,,On the table
1670358946507607800,5.21860791015625,-0.0179071426391601,-0.0312255509197711,0.008244527503848,5.21860791015625,-0.001198387122713,-0.0005326165119186,0.0017310036346316,,On the table
1670358946517531100,5.22853125,0.00830078125,-0.0167429931461811,0.0150226708501577,5.22853125,-0.001198387122713,-0.0015978495357558,0.0017310036346316,,On the table
1670358946527454500,5.238454345703125,0.0199394226074218,-0.0001462660729885,0.0076574962586164,5.238454345703125,-0.001198387122713,-0.0005326165119186,0.0017310036346316,,On the table
1670358946537377800,5.248377685546875,0.0125408172607421,0.0186323747038841,0.016800969839096,5.248377685546875,-0.001198387122713,-0.0015978495357558,0.0006657706107944,,On the table
1670358946547301000,5.258301025390625,0.017043113708496,0.0207121428102254,-0.0022686282172799,5.258301025390625,-0.001198387122713,0.0005326165119186,-0.0003994623839389,,On the table
1670358946557224400,5.268224365234375,0.0214691162109375,0.0086239501833915,-0.0068865572102367,5.268224365234375,-0.0001331541279796,0.0005326165119186,-0.0003994623839389,,On the table
1670358946567147800,5.278147705078125,0.0069780349731445,0.0061594173312187,0.0002467485610395,5.278147705078125,-0.001198387122713,-0.0005326165119186,-0.0003994623839389,,On the table
1670358946577071000,5.288071044921875,-0.1062078475952148,-0.0064072161912918,-0.0094341980293393,5.288071044921875,-0.0022636202629655,-0.0026630824431777,0.0070571689866483,,On the table
1670358946586994400,5.297994384765625,-0.0361289978027343,-0.0443664342164993,-0.016597680747509,5.297994384765625,-0.001198387122713,-0.0026630824431777,0.003861469682306,,On the table
1670358946596917800,5.307917724609375,-0.0049057006835937,-0.0437981784343719,-0.0256884209811687,5.307917724609375,-0.001198387122713,0.0005326165119186,0.0017310036346316,,On the table
1670358946606841000,5.317841064453125,0.039931297302246,-0.0053445920348167,-0.0039024883881211,5.317841064453125,-0.001198387122713,0.0015978495357558,-0.0003994623839389,,On the table
1670358946616764400,5.327764404296875,0.0109996795654296,0.0491629242897033,0.0267366245388984,5.327764404296875,-0.001198387122713,-0.0005326165119186,-0.0025299284607172,,On the table
1670358946626687700,5.337687744140625,0.0320167541503906,0.050733845680952,0.0238873362541198,5.337687744140625,-0.001198387122713,-0.0005326165119186,-0.0003994623839389,,On the table
1670358946636611000,5.347611083984375,0.0197048187255859,0.021656360477209,0.0140183800831437,5.347611083984375,-0.0022636202629655,-0.0005326165119186,-0.0003994623839389,,On the table
1670358946646534400,5.357534423828125,0.0311555862426757,-0.0139001309871673,-0.0191376451402902,5.357534423828125,-0.0001331541279796,0.0005326165119186,-0.0014646954368799,,On the table
1670358946656457700,5.367457763671875,-0.0046968460083007,-0.044049933552742,-0.0258304812014102,5.367457763671875,-0.001198387122713,0.0005326165119186,-0.0025299284607172,,On the table
1670358946666381000,5.377381103515625,-0.0540847778320312,-0.0408224686980247,-0.0207369979470968,5.377381103515625,-0.001198387122713,-0.0005326165119186,-0.0014646954368799,,On the table
1670358946676304600,5.3873046875,-0.0508279800415039,-0.0190103314816951,-0.0064091710373759,5.3873046875,-0.001198387122713,-0.0015978495357558,0.0006657706107944,,On the table
1670358946686228000,5.39722802734375,0.001840591430664,0.0022323355078697,-0.0016393769765272,5.39722802734375,-0.001198387122713,-0.0005326165119186,0.0027962366584688,,On the table
1670358946696151300,5.4071513671875,0.0182991027832031,0.0091935768723487,0.0006953690899536,5.4071513671875,-0.001198387122713,-0.0005326165119186,0.0006657706107944,,On the table
1670358946706074600,5.41707470703125,0.0085716247558593,0.0183943286538124,0.0029906849376857,5.41707470703125,-0.0022636202629655,-0.0005326165119186,0.0006657706107944,,On the table
1670358946715998000,5.426998046875,0.0084285736083984,0.0085973218083381,-0.00181839405559,5.426998046875,-0.001198387122713,-0.0005326165119186,0.0006657706107944,,On the table
1670358946725921300,5.43692138671875,0.015355110168457,0.0060302577912807,-0.0065473201684653,5.43692138671875,-0.001198387122713,-0.0005326165119186,0.0006657706107944,,On the table
1670358946735844600,5.4468447265625,-0.0013895034790039,0.0083200857043266,-0.0111969197168946,5.4468447265625,-0.0001331541279796,-0.0005326165119186,-0.0003994623839389,,On the table
1670358946745768000,5.456767822265625,-0.0107889175415039,-0.0106282383203506,0.0006168739637359,5.456767822265625,-0.0001331541279796,-0.0015978495357558,-0.0003994623839389,,On the table
1670358946755691300,5.466691162109375,-0.0223865509033203,-0.0246526449918746,-0.0041526393033564,5.466691162109375,-0.001198387122713,-0.0005326165119186,0.0006657706107944,,On the table
1670358946765614600,5.476614501953125,0.0038976669311523,-0.0266655385494232,-0.0064871087670326,5.476614501953125,-0.001198387122713,-0.0005326165119186,0.0006657706107944,,On the table
1670358946775538000,5.486537841796875,0.0038318634033203,-0.0075478926301002,-0.0017165318131446,5.486537841796875,-0.0022636202629655,-0.0005326165119186,0.0017310036346316,,On the table
1670358946785461200,5.496461181640625,-0.0127210617065429,0.0136066973209381,0.0029750545509159,5.496461181640625,-0.001198387122713,-0.0005326165119186,0.0017310036346316,,On the table
1670358946795384600,5.506384521484375,0.0134010314941406,0.0037865154445171,-0.0041893161833286,5.506384521484375,-0.001198387122713,-0.0005326165119186,0.0017310036346316,,On the table
1670358946805308000,5.516307861328125,0.015533447265625,0.0201440844684839,-0.0041671060025691,5.516307861328125,-0.0001331541279796,-0.0005326165119186,0.0006657706107944,,On the table
1670358946815231200,5.526231201171875,0.0105628967285156,0.0127764418721199,0.0052764406427741,5.526231201171875,-0.001198387122713,-0.0005326165119186,-0.0003994623839389,,On the table
1670358946825154600,5.536154541015625,-0.0108165740966796,-0.0118841305375099,-0.0307212620973587,5.536154541015625,-0.0022636202629655,-0.0303591415286064,0.0091876350343227,,On the table
1670358946835078000,5.546077880859375,-0.0012140274047851,-0.0425825305283069,0.0013812161050736,5.546077880859375,-0.0022636202629655,-0.0143806459382176,0.0027962366584688,,On the table
1670358946845001200,5.556001220703125,0.0294265747070312,-0.0516721718013286,-0.0128227397799491,5.556001220703125,-0.0001331541279796,-0.0005326165119186,0.003861469682306,,On the table
1670358946854924500,5.565924560546875,0.0831136703491211,-0.0081702135503292,-0.0059883808717131,5.565924560546875,0.0009320789249613,0.0197068117558956,-0.0025299284607172,,On the table
1670358946864848000,5.575847900390625,0.0157747268676757,0.0629763081669807,0.0140406750142574,5.575847900390625,-0.001198387122713,0.0111849466338753,-0.0035951614845544,,On the table
1670358946874771200,5.585771240234375,-0.0292425155639648,0.0763007774949073,0.0095624197274446,5.585771240234375,-0.001198387122713,0.0047935484908521,-0.0025299284607172,,On the table
1670358946884694500,5.595694580078125,-0.0216894149780273,0.0161750093102455,-0.0092835128307342,5.595694580078125,-0.001198387122713,0.0015978495357558,-0.0003994623839389,,On the table
1670358946894617900,5.605617919921875,0.0116500854492187,-0.0453042201697826,-0.0279183387756347,5.605617919921875,-0.001198387122713,0.0005326165119186,-0.0003994623839389,,On the table
1670358946904541200,5.615541259765625,-0.0238780975341796,-0.0799506902694702,-0.0344648212194442,5.615541259765625,-0.001198387122713,0.0005326165119186,0.0006657706107944,,On the table
1670358946914464500,5.625464599609375,-0.0588130950927734,-0.0669086277484893,-0.0150941079482436,5.625464599609375,-0.001198387122713,-0.0005326165119186,0.0006657706107944,,On the table
1670358946924387800,5.635387939453125,-0.0272111892700195,-0.0047202706336975,0.0250507611781358,5.635387939453125,-0.001198387122713,-0.0015978495357558,0.0017310036346316,,On the table
1670358946934311200,5.645311279296875,0.03448486328125,0.032876081764698,0.034007329493761,5.645311279296875,-0.001198387122713,-0.0005326165119186,0.0017310036346316,,On the table
1670358946944234500,5.655234375,0.0480432510375976,0.0440376885235309,0.0239701941609382,5.655234375,-0.001198387122713,-0.0005326165119186,0.0006657706107944,,On the table
1670358946954157800,5.66515771484375,0.0260429382324218,0.0386273711919784,-3.29718459397e-05,5.66515771484375,-0.001198387122713,-0.0005326165119186,-0.0003994623839389,,On the table
1670358946964081200,5.6750810546875,0.0091209411621093,0.019276900216937,-0.0376664139330387,5.6750810546875,-0.001198387122713,0.0005326165119186,-0.0014646954368799,,On the table
1670358946974004500,5.68500439453125,-0.0169410705566406,-0.0091732740402221,-0.0488645322620868,5.68500439453125,-0.001198387122713,-0.0005326165119186,-0.0014646954368799,,On the table
1670358946983927800,5.694927734375,-0.0166587829589843,-0.0232219360768795,-0.033964917063713,5.694927734375,-0.001198387122713,-0.0005326165119186,0.0006657706107944,,On the table
1670358946993851100,5.70485107421875,-0.0281591415405273,-0.0276142209768295,-0.00518031232059,5.70485107421875,-0.001198387122713,-0.0005326165119186,0.0006657706107944,,On the table
1670358947003774500,5.7147744140625,-0.0135574340820312,-0.0273251757025718,0.0137023329734802,5.7147744140625,-0.001198387122713,-0.0005326165119186,0.0017310036346316,,On the table
1670358947013697800,5.72469775390625,0.0031557083129882,-0.0129076242446899,0.0228480510413646,5.72469775390625,-0.001198387122713,-0.0005326165119186,0.0017310036346316,,On the table
1670358947023621000,5.73462109375,0.0101699829101562,0.0131503790616989,0.0200635679066181,5.73462109375,-0.001198387122713,-0.0005326165119186,0.0006657706107944,,On the table
1670358947033544400,5.74454443359375,0.0217781066894531,0.019929664209485,0.0055482359603047,5.74454443359375,-0.0001331541279796,-0.0005326165119186,0.0006657706107944,,On the table
1670358947043467800,5.7544677734375,0.0049257278442382,0.0077515095472335,-0.0087256804108619,5.7544677734375,-0.001198387122713,-0.0005326165119186,0.0006657706107944,,On the table
1670358947053391000,5.76439111328125,-0.0022230148315429,0.0051985345780849,-0.0297253709286451,5.76439111328125,-0.001198387122713,0.0005326165119186,0.0006657706107944,,On the table
1670358947063314400,5.774314453125,-0.0210304260253906,0.0075022168457508,-0.0222114063799381,5.774314453125,-0.001198387122713,-0.0005326165119186,-0.0003994623839389,,On the table
1670358947073237800,5.78423779296875,-0.0089025497436523,-0.0068243592977523,-0.0171782243996858,5.78423779296875,-0.001198387122713,-0.0005326165119186,0.0006657706107944,,On the table
1670358947083161000,5.7941611328125,-0.0016870498657226,-0.0232677087187767,-0.0004511595179792,5.7941611328125,-0.001198387122713,-0.0005326165119186,0.0006657706107944,,On the table
1670358947093084400,5.80408447265625,-0.0087261199951171,-0.0064592435956001,0.0159971173852682,5.80408447265625,-0.001198387122713,-0.0005326165119186,0.0006657706107944,,On the table
1670358947103007700,5.8140078125,-0.0038690567016601,-0.0040642470121383,0.0227490421384573,5.8140078125,-0.001198387122713,-0.0005326165119186,0.0006657706107944,,On the table
1670358947112931000,5.82393115234375,0.0009069442749023,-0.0040647275745868,0.0128995571285486,5.82393115234375,-0.001198387122713,-0.0005326165119186,0.0006657706107944,,On the table
1670358947122854400,5.8338544921875,0.0079584121704101,-0.0040652006864547,-0.0132746482267975,5.8338544921875,-0.001198387122713,-0.0005326165119186,0.0006657706107944,,On the table
1670358947132777700,5.84377783203125,0.0101814270019531,0.0031039752066135,-0.0106429886072874,5.84377783203125,-0.001198387122713,0.0005326165119186,-0.0003994623839389,,On the table
1670358947142701000,5.853701171875,0.0076560974121093,0.0148647800087928,-0.0198329593986272,5.853701171875,-0.001198387122713,0.0005326165119186,-0.0003994623839389,,On the table
1670358947152624600,5.863624755859375,0.002817153930664,0.0052295885980129,-0.0148394219577312,5.863624755859375,-0.001198387122713,-0.0005326165119186,-0.0003994623839389,,On the table
1670358947162548000,5.8735478515625,-0.0113630294799804,-0.0067035518586635,-0.0122846625745296,5.8735478515625,-0.001198387122713,-0.0005326165119186,0.0006657706107944,,On the table
1670358947172471300,5.88347119140625,-0.0182399749755859,-0.0184378027915954,-0.0003502659965306,5.88347119140625,-0.001198387122713,-0.0005326165119186,0.0006657706107944,,On the table
1670358947182394600,5.89339453125,-0.008514404296875,-0.0276209339499473,0.0184518843889236,5.89339453125,-0.001198387122713,-0.0005326165119186,0.0006657706107944,,On the table
1670358947192318000,5.90331787109375,-0.0083732604980468,-0.0249762162566185,0.0157406758517026,5.90331787109375,-0.001198387122713,-0.0005326165119186,0.0017310036346316,,On the table
1670358947202241300,5.9132412109375,-0.0058784484863281,-0.0152059495449066,0.0224968697875738,5.9132412109375,-0.001198387122713,-0.0005326165119186,0.0006657706107944,,On the table
1670358947212164600,5.92316455078125,0.0130643844604492,0.0038237012922763,0.0079404721036553,5.92316455078125,-0.001198387122713,-0.0005326165119186,0.0006657706107944,,On the table
1670358947222088000,5.933087890625,0.001068115234375,0.0082998871803283,-0.0040177637711167,5.933087890625,-0.001198387122713,-0.0005326165119186,0.0017310036346316,,On the table
1670358947232011300,5.94301123046875,0.0528621673583984,0.0039871707558631,-0.0215046405792236,5.94301123046875,-0.001198387122713,0.013315413147211,0.0187747329473495,,On the table
1670358947241934600,5.9529345703125,-0.0822887420654296,-0.0155068561434745,-0.0634913221001625,5.9529345703125,-0.001198387122713,0.0005326165119186,0.0059919357299804,,On the table
1670358947251858000,5.96285791015625,-0.0196733474731445,-0.0248417817056179,-0.057667139917612,5.96285791015625,-0.001198387122713,0.0005326165119186,0.0017310036346316,,On the table
1670358947261781200,5.97278125,0.0866575241088867,0.016166303306818,0.0157532058656215,5.97278125,-0.001198387122713,-0.0058587817475199,-0.0057256272993981,,On the table
1670358947271704600,5.98270458984375,0.0286817550659179,0.0634546652436256,0.064291276037693,5.98270458984375,-0.001198387122713,-0.0069240145385265,-0.0046603945083916,,On the table
1670358947281628000,5.9926279296875,-6.19888305664e-05,0.0532156266272068,0.0702383071184158,5.9926279296875,-0.001198387122713,-0.0005326165119186,-0.0025299284607172,,On the table
1670358947291551200,6.00255126953125,0.0070056915283203,-0.0180971808731555,0.0383973717689514,6.00255126953125,-0.001198387122713,-0.0005326165119186,-0.0025299284607172,,On the table
1670358947301474600,6.012474609375,0.0068902969360351,-0.0670214593410492,-0.0188239812850952,6.012474609375,-0.001198387122713,-0.0005326165119186,-0.0025299284607172,,On the table
1670358947311398000,6.02239794921875,-0.0474014282226562,-0.0681222379207611,-0.0421139039099216,6.02239794921875,-0.001198387122713,-0.0005326165119186,-0.0014646954368799,,On the table
1670358947321321200,6.0323212890625,-0.0725221633911132,-0.0457521267235279,-0.0415631160140037,6.0323212890625,-0.001198387122713,-0.0015978495357558,-0.0003994623839389,,On the table
1670358947331244500,6.04224462890625,-0.0265588760375976,0.0137280784547328,-0.0198215153068304,6.04224462890625,-0.001198387122713,-0.0015978495357558,0.0017310036346316,,On the table
1670358947341167900,6.05216796875,0.028059959411621,0.0509140044450759,-0.0031533676665276,6.05216796875,-0.001198387122713,-0.0015978495357558,0.0027962366584688,,On the table
1670358947351091200,6.06209130859375,0.0558586120605468,0.045286126434803,0.0133399525657296,6.06209130859375,-0.001198387122713,-0.0005326165119186,0.0006657706107944,,On the table
1670358947361014500,6.0720146484375,0.0313720703125,0.0327883511781692,0.0201361719518899,6.0720146484375,-0.001198387122713,-0.0005326165119186,-0.0003994623839389,,On the table
1670358947370937900,6.081937744140625,-0.0115518569946289,0.0040099956095218,0.0173969082534313,6.081937744140625,-0.001198387122713,-0.0005326165119186,-0.0003994623839389,,On the table
1670358947380861200,6.091861083984375,-0.0325584411621093,-0.0313554070889949,0.0005694878054782,6.091861083984375,-0.0022636202629655,-0.0005326165119186,-0.0003994623839389,,On the table
1670358947390784500,6.101784423828125,-0.0155267715454101,-0.0615232400596141,-0.0089103272184729,6.101784423828125,-0.001198387122713,-0.0005326165119186,0.0006657706107944,,On the table
1670358947400707800,6.111707763671875,-0.0246906280517578,-0.0487882979214191,-0.0018462535226717,6.111707763671875,-0.001198387122713,-0.0015978495357558,0.0006657706107944,,On the table
1670358947410631200,6.121631103515625,-0.0101470947265625,-0.0081019364297389,-0.008930267766118,6.121631103515625,-0.001198387122713,-0.0005326165119186,0.0017310036346316,,On the table
1670358947420554500,6.131554443359375,0.0253543853759765,0.0271952170878648,-0.0088295517489314,6.131554443359375,-0.001198387122713,-0.0005326165119186,0.0017310036346316,,On the table
1670358947430477800,6.141477783203125,0.0249319076538085,0.0525848381221294,-0.0063749570399522,6.141477783203125,-0.001198387122713,-0.0005326165119186,0.0006657706107944,,On the table
1670358947440401200,6.151401123046875,0.0268716812133789,0.0423209629952907,0.0054609524086117,6.151401123046875,-0.001198387122713,-0.0005326165119186,-0.0003994623839389,,On the table
1670358947450324500,6.161324462890625,0.017003059387207,0.0087755993008613,0.0006107236258685,6.161324462890625,-0.001198387122713,-0.0005326165119186,-0.0014646954368799,,On the table
1670358947460247800,6.171247802734375,-0.0021238327026367,-0.0194995403289794,0.0029084831476211,6.171247802734375,-0.0001331541279796,-0.0005326165119186,-0.0014646954368799,,On the table
1670358947470171100,6.181171142578125,-0.0468435287475585,-0.037984225898981,0.0123370988294482,6.181171142578125,-0.001198387122713,0.0005326165119186,-0.0003994623839389,,On the table
1670358947480094500,6.191094482421875,-0.0625524520874023,-0.0516556799411773,0.0073722591623663,6.191094482421875,-0.001198387122713,-0.0005326165119186,0.0017310036346316,,On the table
1670358947490017800,6.201017822265625,-0.0827188491821289,-0.0454437397420406,-0.0004451661370694,6.201017822265625,-0.001198387122713,0.066577062010765,0.0177094992250204,,On the table
1670358947499941000,6.210941162109375,-0.067209243774414,-0.0402492396533489,-0.0709593892097473,6.210941162109375,-0.0022636202629655,-0.0229025091975927,0.0027962366584688,,On the table
1670358947509864400,6.220864501953125,0.1152887344360351,0.0171955414116382,-0.0461784228682518,6.220864501953125,-0.001198387122713,-0.0239677429199218,-0.0025299284607172,,On the table
1670358947519787800,6.230787841796875,0.1227922439575195,0.1114747673273086,0.0243860464543104,6.230787841796875,-0.001198387122713,-0.0090544810518622,-0.0035951614845544,,On the table
1670358947529711400,6.24071142578125,-0.0394315719604492,0.1285990476608276,0.0308951903134584,6.24071142578125,-0.001198387122713,-0.0015978495357558,-0.0014646954368799,,On the table
1670358947539634700,6.250634765625,0.0106935501098632,0.032474298030138,0.0233685076236724,6.250634765625,-0.001198387122713,0.0005326165119186,-0.0025299284607172,,On the table
1670358947549558000,6.26055810546875,0.0364274978637695,-0.0832483619451522,0.0089006125926971,6.26055810546875,-0.001198387122713,0.0005326165119186,-0.0025299284607172,,On the table
1670358947559481300,6.2704814453125,-0.0584001541137695,-0.1310867667198181,-0.0054291491396725,6.2704814453125,-0.001198387122713,-0.0005326165119186,-0.0025299284607172,,On the table
1670358947569404700,6.28040478515625,-0.1280937194824218,-0.121903546154499,0.0063909902237355,6.28040478515625,-0.001198387122713,-0.0005326165119186,0.0006657706107944,,On the table
1670358947579328300,6.290328369140625,-0.0600061416625976,-0.037907425314188,0.0084889512509107,6.290328369140625,-0.001198387122713,-0.0015978495357558,0.0049267029389739,,On the table
1670358947589251600,6.30025146484375,0.0517024993896484,0.0235917530953884,-0.0012258095666766,6.30025146484375,-0.001198387122713,-0.0015978495357558,0.003861469682306,,On the table
1670358947599175000,6.3101748046875,0.0885295867919921,0.0913384705781936,-0.0154897710308432,6.3101748046875,-0.001198387122713,-0.0015978495357558,0.0017310036346316,,On the table
1670358947609098200,6.32009814453125,0.0540761947631835,0.1086953580379486,-0.01999082416296,6.32009814453125,-0.001198387122713,-0.0005326165119186,-0.0003994623839389,,On the table
1670358947619021800,6.330021728515625,0.0296201705932617,0.0574519000947475,-0.0220612920820713,6.330021728515625,-0.001198387122713,-0.0005326165119186,-0.0003994623839389,,On the table
1670358947628945200,6.339945068359375,0.0008611679077148,-0.0068648606538772,-0.0192831549793481,6.339945068359375,-0.001198387122713,0.0005326165119186,-0.0025299284607172,,On the table
1670358947638868500,6.349868408203125,-0.0321302413940429,-0.063145987689495,-0.0095876427367329,6.349868408203125,-0.001198387122713,-0.0005326165119186,-0.0014646954368799,,On the table
1670358947648791800,6.359791748046875,-0.0598611831665039,-0.0856143087148666,0.014079101383686,6.359791748046875,-0.0022636202629655,-0.0005326165119186,-0.0003994623839389,,On the table
1670358947658715100,6.369715087890625,-0.0635757446289062,-0.0796474665403366,0.0348933599889278,6.369715087890625,-0.001198387122713,-0.0015978495357558,0.0017310036346316,,On the table
1670358947668638700,6.379638671875,-0.0036287307739257,-0.031380072236061,0.0366192385554313,6.379638671875,-0.001198387122713,-0.0005326165119186,0.0017310036346316,,On the table
1670358947678562000,6.38956201171875,0.0364751815795898,0.0254021100699901,0.0170134156942367,6.38956201171875,-0.001198387122713,-0.0015978495357558,0.0027962366584688,,On the table
1670358947688485400,6.3994853515625,0.0405788421630859,0.0767327174544334,-0.0115849059075117,6.3994853515625,-0.001198387122713,-0.0005326165119186,0.0006657706107944,,On the table
1670358947698408700,6.40940869140625,0.0234136581420898,0.0566441565752029,-0.0325369499623775,6.40940869140625,-0.001198387122713,0.0005326165119186,-0.0003994623839389,,On the table
1670358947708332300,6.419332275390625,0.0159568786621093,0.0156904384493827,-0.0461755990982055,6.419332275390625,-0.0001331541279796,-0.0005326165119186,-0.0003994623839389,,On the table
1670358947718255600,6.429255615234375,-0.0149316787719726,-0.0033807307481765,-0.0335733592510223,6.429255615234375,-0.001198387122713,0.0005326165119186,-0.0003994623839389,,On the table
1670358947728179000,6.439178955078125,-0.0288162231445312,-0.038622923195362,-0.002439699601382,6.439178955078125,-0.001198387122713,-0.0005326165119186,-0.0003994623839389,,On the table
1670358947738102300,6.449102294921875,-0.0189142227172851,-0.0567888654768466,0.0211084000766277,6.449102294921875,-0.001198387122713,-0.0005326165119186,-0.0003994623839389,,On the table
1670358947748025600,6.459025634765625,-0.0138874053955078,-0.0394217036664485,0.0347388461232185,6.459025634765625,-0.001198387122713,-0.0015978495357558,0.0006657706107944,,On the table
1670358947757949200,6.46894921875,0.0051870346069335,0.0128863416612148,0.0411784090101718,6.46894921875,-0.001198387122713,-0.0005326165119186,0.0017310036346316,,On the table
1670358947767872500,6.47887255859375,0.0286569595336914,0.0196700189262628,0.0075691961683332,6.47887255859375,-0.001198387122713,0.0005326165119186,0.0006657706107944,,On the table
1670358947777795800,6.4887958984375,0.0352458953857421,0.0217324905097484,-0.0184131953865289,6.4887958984375,-0.001198387122713,0.0005326165119186,-0.0003994623839389,,On the table
1670358947787719200,6.49871923828125,-0.0077400207519531,0.0332857780158519,-0.0417099557816982,6.49871923828125,-0.001198387122713,-0.0005326165119186,-0.0014646954368799,,On the table
1670358947797642800,6.508642822265625,-0.0217437744140625,0.018735421821475,-0.0434184521436691,6.508642822265625,-0.001198387122713,-0.0005326165119186,-0.0014646954368799,,On the table
1670358947807566000,6.518566162109375,-0.028447151184082,-0.02168944850564,-0.0356762483716011,6.518566162109375,-0.001198387122713,-0.0005326165119186,0.0006657706107944,,On the table
1670358947817489400,6.528489501953125,-0.025618553161621,-0.0498687140643596,-0.0115742059424519,6.528489501953125,-0.001198387122713,-0.0005326165119186,0.0027962366584688,,On the table
1670358947827412700,6.538412841796875,-0.0110588073730468,-0.0444976054131984,0.0262594558298587,6.538412841796875,-0.001198387122713,-0.0005326165119186,0.0017310036346316,,On the table
1670358947837336000,6.548336181640625,0.0150356292724609,-0.0133049190044403,0.0492262728512287,6.548336181640625,-0.001198387122713,-0.0015978495357558,0.0017310036346316,,On the table
1670358947847259600,6.558259765625,0.0383405685424804,0.0104041695594787,0.0483577214181423,6.558259765625,-0.001198387122713,-0.0005326165119186,0.0006657706107944,,On the table
1670358947857183000,6.568182861328125,0.0306358337402343,0.0314655005931854,0.0263036619871854,6.568182861328125,-0.001198387122713,-0.0005326165119186,-0.0003994623839389,,On the table
1670358947867106300,6.578106201171875,0.0183486938476562,0.0357899256050586,-0.0024489883799105,6.578106201171875,-0.0001331541279796,-0.0005326165119186,-0.0014646954368799,,On the table
1670358947877029600,6.588029541015625,0.0086212158203125,0.0164867155253887,-0.0376866161823272,6.588029541015625,-0.001198387122713,0.0005326165119186,-0.0014646954368799,,On the table
1670358947886953000,6.597952880859375,-0.0197877883911132,-0.0189836397767066,-0.0535954870283603,6.597952880859375,-0.001198387122713,-0.0005326165119186,-0.0014646954368799,,On the table
1670358947896876300,6.607876220703125,-0.0335912704467773,-0.0280547030270099,-0.0361584946513175,6.607876220703125,-0.001198387122713,0.0005326165119186,-0.0003994623839389,,On the table
1670358947906799600,6.617799560546875,-0.0330324172973632,-0.0324693880975246,-0.002626207889989,6.617799560546875,-0.001198387122713,-0.0005326165119186,0.0017310036346316,,On the table
1670358947916723000,6.627722900390625,0.0028505325317382,-0.0250327214598655,0.016110923141241,6.627722900390625,-0.001198387122713,-0.0015978495357558,0.0017310036346316,,On the table
1670358947926646300,6.637646240234375,0.0216455459594726,0.0058355331420898,0.0368913188576698,6.637646240234375,-0.001198387122713,-0.0015978495357558,0.0017310036346316,,On the table
1670358947936569600,6.647569580078125,0.0236406326293945,0.0245144963264465,0.0432950109243392,6.647569580078125,-0.001198387122713,-0.0005326165119186,0.0006657706107944,,On the table
1670358947946493000,6.657492919921875,0.0232467651367187,0.0241406671702861,0.0120060807093977,6.657492919921875,-0.001198387122713,0.0005326165119186,-0.0003994623839389,,On the table
1670358947956416300,6.667416259765625,0.011082649230957,0.0144538283348083,-0.0093391453847289,6.667416259765625,-0.001198387122713,0.0005326165119186,-0.0014646954368799,,On the table
1670358947966339600,6.677339599609375,-0.0079460144042968,-0.0068493299186229,-0.037395279854536,6.677339599609375,-0.001198387122713,0.0005326165119186,-0.0014646954368799,,On the table
1670358947976263000,6.687262939453125,-0.0219459533691406,-0.023086342960596,-0.0344650819897651,6.687262939453125,-0.0022636202629655,-0.0005326165119186,-0.0014646954368799,,On the table
1670358947986186200,6.697186279296875,-0.0262908935546875,-0.0274808816611766,-0.0245165657252073,6.697186279296875,-0.001198387122713,-0.0005326165119186,0.0006657706107944,,On the table
1670358947996109600,6.707109619140625,-0.0093650817871093,-0.0200244113802909,0.0041100634261965,6.707109619140625,-0.0022636202629655,-0.0005326165119186,0.0006657706107944,,On the table
1670358948006033000,6.717032958984375,-0.0021429061889648,-0.0080840624868869,0.0227349139750003,6.717032958984375,-0.001198387122713,-0.0015978495357558,0.0017310036346316,,On the table
1670358948015956200,6.726956298828125,0.0261592864990234,0.0014046803116798,0.024560471996665,6.726956298828125,-0.001198387122713,-0.0015978495357558,0.0006657706107944,,On the table
1670358948025879600,6.736879638671875,0.0186567306518554,0.0202604550868272,0.0264585651457309,6.736879638671875,-0.001198387122713,-0.0005326165119186,-0.0003994623839389,,On the table
1670358948035803000,6.746802978515625,0.0065670013427734,0.0081797577440738,0.0095835607498884,6.746802978515625,-0.001198387122713,0.0005326165119186,-0.0003994623839389,,On the table
