time,seconds_elapsed,z,y,x
1670350768736621800,0.301621826171875,0,0,0
1670350768746593300,0.31159326171875,-0.037346839904785156,-0.0029006004333496094,0.005993366241455078
1670350768756671500,0.32167138671875,-0.08267688751220703,0.022783756256103516,0.01737964153289795
1670350768766749700,0.331749755859375,-0.15024185180664062,0.028249263763427734,-0.006867647171020508
1670350768776924400,0.34192431640625,-0.24889183044433594,-0.003977298736572266,-0.05434370040893555
1670350768787099000,0.352098876953125,-0.31002330780029297,-0.01635599136352539,-0.10552680492401123
1670350768797098800,0.3620986328125,-0.2754364013671875,-0.030429840087890625,-0.14829647541046143
1670350768807278000,0.372278076171875,-0.1148080825805664,-0.017571449279785156,-0.11709117889404297
1670350768817278000,0.38227783203125,0.048171043395996094,0.031229019165039062,-0.02098548412322998
1670350768827444200,0.3924443359375,0.090423583984375,0.057491302490234375,-0.008932113647460938
1670350768837444000,0.402444091796875,0.029664039611816406,0.04684877395629883,-0.03468024730682373
1670350768847597600,0.41259765625,0.006634712219238281,0.018245697021484375,-0.041832804679870605
1670350768857597700,0.42259765625,-0.01728343963623047,-0.018607139587402344,-0.007509350776672363
1670350768867739000,0.43273876953125,-0.0644235610961914,-0.03253746032714844,-0.0014910697937011719
1670350768877739000,0.442739013671875,-0.09103965759277344,-0.003094196319580078,0.004775404930114746
1670350768887868700,0.45286865234375,-0.08953571319580078,0.017824649810791016,-0.009230971336364746
1670350768897868800,0.462868896484375,-0.08629131317138672,0.017483234405517578,-0.01820504665374756
1670350768907987200,0.4729873046875,-0.09490013122558594,0.006103038787841797,-0.040675997734069824
1670350768917987300,0.4829873046875,-0.10602188110351562,-0.022147178649902344,-0.04388296604156494
1670350768928095000,0.493094970703125,-0.05570411682128906,-0.030219078063964844,-0.05227458477020264
1670350768938095000,0.50309521484375,-0.035292625427246094,-0.02872180938720703,-0.02902960777282715
1670350768948192800,0.51319287109375,0.0000820159912109375,0.002426624298095703,0.020569682121276855
1670350768958377000,0.523376953125,0.027074813842773438,0.048180580139160156,0.05675661563873291
1670350768968377000,0.533377197265625,0.02562427520751953,0.06655025482177734,0.043408870697021484
1670350768978454300,0.543454345703125,-0.012499809265136719,0.01510763168334961,0.0014704465866088867
1670350768988599600,0.553599609375,-0.1324615478515625,-0.006298542022705078,-0.05635833740234375
1670350768998599700,0.563599609375,-0.3248281478881836,0.1518545150756836,0.08522891998291016
1670350769008659200,0.5736591796875,-0.15778350830078125,0.07906913757324219,-0.03511333465576172
1670350769018770200,0.583770263671875,-0.015877723693847656,-0.02483844757080078,-0.11358499526977539
1670350769028923400,0.59392333984375,0.16477298736572266,-0.05985546112060547,-0.1329796314239502
1670350769039108000,0.604108154296875,0.27042579650878906,-0.00834035873413086,-0.010448336601257324
1670350769049108200,0.614108154296875,0.18809223175048828,0.0450444221496582,0.18718719482421875
1670350769059132200,0.624132080078125,0.062496185302734375,0.12142610549926758,0.21917665004730225
1670350769069175600,0.634175537109375,-0.056647300720214844,0.02304220199584961,0.13391709327697754
1670350769079232800,0.644232666015625,-0.13996219635009766,-0.04459238052368164,0.06128334999084473
1670350769089297700,0.654297607421875,-0.16340160369873047,-0.0629434585571289,-0.048506855964660645
1670350769099364600,0.664364501953125,-0.11899280548095703,-0.03833580017089844,-0.09056520462036133
1670350769109338600,0.674338623046875,0.03869819641113281,-0.0028128623962402344,-0.09098362922668457
1670350769119263700,0.684263671875,0.2119150161743164,-0.03232145309448242,-0.030004501342773438
1670350769129189000,0.694189208984375,0.2580146789550781,-0.053102970123291016,0.01714944839477539
1670350769139114200,0.7041142578125,0.3317422866821289,-0.07920694351196289,-0.05295431613922119
1670350769149039600,0.71403955078125,0.3246593475341797,-0.12903118133544922,-0.16395056247711182
1670350769158965000,0.723965087890625,0.2596893310546875,-0.1434497833251953,-0.2055903673171997
1670350769168890000,0.73389013671875,0.2062835693359375,-0.11408138275146484,-0.1811211109161377
1670350769178815500,0.7438154296875,0.11529731750488281,-0.07975912094116211,-0.11629784107208252
1670350769188740600,0.75374072265625,0.005934715270996094,-0.028445720672607422,-0.0749138593673706
1670350769198666000,0.763666015625,-0.10336971282958984,0.003043651580810547,-0.07029438018798828
1670350769208591000,0.773591064453125,-0.2341928482055664,0.07445907592773438,0.001423954963684082
1670350769218516500,0.7835166015625,-0.18680858612060547,0.08880138397216797,0.02689218521118164
1670350769228441600,0.793441650390625,-0.11274433135986328,0.051917076110839844,0.012546658515930176
1670350769238367000,0.803366943359375,-0.00530242919921875,0.006924152374267578,0.0034867525100708008
1670350769248292400,0.813292236328125,0.09072685241699219,-0.03031635284423828,0.009001493453979492
1670350769258217500,0.823217529296875,0.09600639343261719,-0.04624319076538086,-0.016402840614318848
1670350769268142800,0.833142822265625,0.03579521179199219,-0.07424116134643555,-0.025339484214782715
1670350769278068000,0.84306787109375,-0.06326675415039062,-0.0311737060546875,-0.001473546028137207
1670350769287993300,0.852993408203125,-0.139984130859375,0.037726402282714844,0.018397212028503418
1670350769297918500,0.86291845703125,-0.18593215942382812,0.05737018585205078,0.005124688148498535
1670350769307843800,0.87284375,-0.16614437103271484,0.028642654418945312,0.009457945823669434
1670350769317769000,0.88276904296875,-0.1356210708618164,0.04866981506347656,0.051348328590393066
1670350769327694300,0.8926943359375,-0.14138031005859375,0.08789300918579102,0.026752710342407227
1670350769337619500,0.902619384765625,-0.11458683013916016,0.04947376251220703,-0.13803136348724365
1670350769347544800,0.912544921875,-0.12647533416748047,0.024614810943603516,-0.09112954139709473
1670350769357470200,0.92247021484375,-0.020737648010253906,-0.02246856689453125,-0.1475076675415039
1670350769367395300,0.932395263671875,0.0175018310546875,-0.05010366439819336,-0.09773600101470947
1670350769377320700,0.94232080078125,0.015430450439453125,-0.033052921295166016,-0.03980851173400879
1670350769387245800,0.952245849609375,-0.033583641052246094,-0.0023941993713378906,-0.09818553924560547
1670350769397171200,0.962171142578125,-0.12222480773925781,0.05428028106689453,-0.1080254316329956
1670350769407096300,0.972096435546875,-0.075836181640625,0.05941200256347656,-0.0255964994430542
1670350769417021700,0.982021728515625,0.00002765655517578125,0.04863929748535156,0.04139995574951172
1670350769426946800,0.99194677734375,0.0652627944946289,0.042706966400146484,0.10713982582092285
1670350769436872200,1.0018720703125,0.08242511749267578,0.10283470153808594,0.2345050573348999
1670350769446797300,1.01179736328125,0.1182107925415039,0.09590816497802734,0.17367088794708252
1670350769456722700,1.02172265625,0.11559104919433594,0.05838155746459961,-0.06377613544464111
1670350769466648000,1.03164794921875,0.06577682495117188,0.02167034149169922,-0.22395598888397217
1670350769476573200,1.0415732421875,0.03302955627441406,0.00977325439453125,-0.06415510177612305
1670350769486498600,1.05149853515625,0.0192413330078125,0.02493000030517578,0.20782852172851562
1670350769496423700,1.061423583984375,0.15146350860595703,-0.07309484481811523,0.29313886165618896
1670350769506349000,1.07134912109375,0.28923797607421875,-0.14816904067993164,0.3649059534072876
1670350769516274200,1.081274169921875,0.26103973388671875,-0.05291891098022461,0.3442721366882324
1670350769526199600,1.091199462890625,0.25864505767822266,0.12037134170532227,0.22799110412597656
1670350769536124700,1.101124755859375,0.22989273071289062,0.19135665893554688,0.15593981742858887
1670350769546050000,1.111050048828125,0.052092552185058594,0.09689617156982422,0.2948669195175171
1670350769555975400,1.120975341796875,0.10178661346435547,-0.03286457061767578,0.3097144365310669
1670350769565900500,1.130900634765625,0.08793354034423828,-0.09658479690551758,0.22506558895111084
1670350769575826000,1.140825927734375,-0.019121170043945312,-0.03097248077392578,0.150628924369812
1670350769585751000,1.1507509765625,-0.1975421905517578,0.07160091400146484,0.1640923023223877
1670350769595676400,1.160676513671875,-0.29173946380615234,0.1176910400390625,0.18157958984375
1670350769605601500,1.1706015625,-0.26235103607177734,0.10729837417602539,0.11188101768493652
1670350769615527000,1.18052685546875,-0.33726978302001953,0.057886600494384766,-0.008463859558105469
1670350769625452000,1.1904521484375,-0.2538881301879883,-0.02200174331665039,-0.17042779922485352
1670350769635377400,1.20037744140625,0.003604888916015625,-0.09638214111328125,-0.32363361120224
1670350769645302500,1.210302490234375,0.34067535400390625,-0.1401071548461914,-0.33512479066848755
1670350769655228000,1.220227783203125,0.5545158386230469,-0.15800046920776367,-0.226112961769104
1670350769665153300,1.2301533203125,0.570887565612793,-0.16412973403930664,-0.14580559730529785
1670350769675078400,1.240078369140625,0.45749759674072266,-0.14801645278930664,-0.07916468381881714
1670350769685003800,1.250003662109375,0.10059261322021484,-0.1801748275756836,-0.08074241876602173
1670350769694929000,1.259928955078125,-0.36542320251464844,-0.19595670700073242,-0.20000410079956055
1670350769704854300,1.269854248046875,-0.6174359321594238,-0.1669325828552246,-0.36304396390914917
1670350769714779400,1.279779296875,-0.6266131401062012,-0.07152175903320312,-0.4047231078147888
1670350769724704800,1.289704833984375,-0.4393129348754883,0.027464866638183594,-0.3444788455963135
1670350769734630000,1.2996298828125,-0.20176029205322266,0.041613101959228516,-0.29075509309768677
1670350769744555300,1.30955517578125,0.06286907196044922,0.024605274200439453,-0.19543439149856567
1670350769754480400,1.31948046875,0.06926918029785156,0.01175689697265625,-0.1640481948852539
1670350769764405800,1.32940576171875,-0.02807140350341797,0.013362407684326172,-0.1314646601676941
1670350769774331100,1.3393310546875,-0.04427623748779297,0.039545536041259766,-0.050036847591400146
1670350769784256300,1.34925634765625,-0.004131317138671875,0.087127685546875,0.07101136445999146
1670350769794181600,1.359181640625,-0.014422416687011719,0.0917367935180664,0.1469639539718628
1670350769804106800,1.369106689453125,0.05780315399169922,0.03749227523803711,0.19137591123580933
1670350769814032100,1.3790322265625,0.17389202117919922,-0.013936042785644531,0.21557772159576416
1670350769823957200,1.388957275390625,0.24631881713867188,-0.07743453979492188,0.19665807485580444
1670350769833882600,1.398882568359375,0.21474742889404297,-0.10141849517822266,0.16888922452926636
1670350769843807700,1.408807861328125,0.10403251647949219,-0.09063196182250977,0.14029067754745483
1670350769853733000,1.418733154296875,0.0776214599609375,-0.04262495040893555,0.07818782329559326
1670350769863658500,1.428658447265625,0.09374046325683594,0.00012254714965820312,0.02580791711807251
1670350769873583600,1.43858349609375,0.09316158294677734,0.004460811614990234,0.0067931413650512695
1670350769883509000,1.448509033203125,0.07420539855957031,0.00829458236694336,0.007278561592102051
1670350769893434000,1.45843408203125,0.030159950256347656,-0.000263214111328125,-0.07184404134750366
1670350769903359500,1.468359375,-0.13790225982666016,-0.006533622741699219,-0.15647369623184204
1670350769913284600,1.47828466796875,-0.28519153594970703,-0.008988380432128906,-0.15845167636871338
1670350769923210000,1.4882099609375,-0.2615804672241211,0.03765869140625,-0.12203562259674072
1670350769933135000,1.498135009765625,-0.15678691864013672,0.06376218795776367,-0.07143127918243408
1670350769943060500,1.508060546875,-0.08691024780273438,0.05439424514770508,-0.04257398843765259
1670350769952985600,1.517985595703125,-0.1005086898803711,0.04035472869873047,-0.036051928997039795
1670350769962911000,1.527910888671875,-0.12061882019042969,0.03321218490600586,-0.023573100566864014
1670350769972836400,1.53783642578125,-0.18517017364501953,0.01230621337890625,-0.03365278244018555
1670350769982761500,1.547761474609375,-0.1453227996826172,-0.005110263824462891,-0.030581176280975342
1670350769992686800,1.557686767578125,-0.04741954803466797,0.0018439292907714844,-0.0004938840866088867
1670350770002612000,1.567612060546875,0.08893108367919922,0.01101064682006836,0.04066157341003418
1670350770012537300,1.577537353515625,0.1666545867919922,0.01953268051147461,0.09858173131942749
1670350770022462500,1.58746240234375,0.1962594985961914,0.0059719085693359375,0.10493415594100952
1670350770032387800,1.597387939453125,0.17165374755859375,0.010579109191894531,0.04798746109008789
1670350770042313000,1.60731298828125,0.11506938934326172,0.0022869110107421875,-0.005714297294616699
1670350770052238300,1.61723828125,0.017357826232910156,-0.006483554840087891,-0.004213869571685791
1670350770062163500,1.62716357421875,-0.059866905212402344,0.00836801528930664,0.0022808313369750977
1670350770072088800,1.6370888671875,-0.13147830963134766,0.011830329895019531,0.03724205493927002
1670350770082014200,1.64701416015625,-0.07753276824951172,0.0020127296447753906,-0.013457655906677246
1670350770091939600,1.656939697265625,-0.0623779296875,-0.012047290802001953,0.014757692813873291
1670350770101864700,1.66686474609375,-0.15140056610107422,0.0076141357421875,0.08251762390136719
1670350770111790000,1.6767900390625,-0.17822933197021484,0.03973388671875,0.009893715381622314
1670350770121715500,1.686715576171875,-0.1531829833984375,0.022664546966552734,-0.08801686763763428
1670350770131640800,1.696640869140625,-0.06756973266601562,0.004095554351806641,-0.03880810737609863
1670350770141566000,1.70656591796875,0.05903053283691406,0.00929403305053711,0.04531979560852051
1670350770151491300,1.7164912109375,0.0987405776977539,0.018921852111816406,0.05121457576751709
1670350770161416700,1.726416748046875,0.09082889556884766,0.027953147888183594,0.057943642139434814
1670350770171342000,1.736342041015625,-0.001781463623046875,0.039093017578125,0.06777012348175049
1670350770181267500,1.746267333984375,-0.07185554504394531,0.04332113265991211,0.06584370136260986
1670350770191192600,1.756192626953125,-0.14327049255371094,0.010300636291503906,0.0673784613609314
1670350770201118000,1.766117919921875,-0.2043304443359375,-0.0027256011962890625,0.04929691553115845
1670350770211043300,1.776043212890625,-0.08349132537841797,-0.007699012756347656,0.02989405393600464
1670350770220968700,1.78596875,0.06582450866699219,-0.021831035614013672,-0.03358525037765503
1670350770230893800,1.795893798828125,0.15168285369873047,-0.036127567291259766,-0.05647939443588257
1670350770240819200,1.805819091796875,0.1351909637451172,-0.03421211242675781,-0.05860799551010132
1670350770250744600,1.81574462890625,0.18773174285888672,-0.05431365966796875,-0.04902350902557373
1670350770260670000,1.825669921875,0.16930580139160156,-0.05159759521484375,-0.032353997230529785
1670350770270595000,1.835594970703125,0.03619670867919922,-0.042494773864746094,-0.06863218545913696
1670350770280520400,1.8455205078125,-0.042754173278808594,-0.00044918060302734375,-0.11557966470718384
1670350770290445800,1.85544580078125,-0.09457778930664062,0.036398887634277344,-0.1171865463256836
1670350770300371200,1.86537109375,-0.13406848907470703,0.025915145874023438,-0.09188753366470337
1670350770310296300,1.87529638671875,-0.0836648941040039,-0.005200862884521484,-0.09702301025390625
1670350770320221700,1.8852216796875,-0.050826072692871094,0.0072002410888671875,-0.05828958749771118
1670350770330147000,1.89514697265625,0.07588005065917969,0.01914358139038086,0.016940295696258545
1670350770340072400,1.905072509765625,0.08077049255371094,0.046616554260253906,0.038980722427368164
1670350770349997600,1.91499755859375,0.0812530517578125,0.061319828033447266,0.059709906578063965
1670350770359923000,1.9249228515625,0.08450698852539062,0.05151510238647461,0.053817033767700195
1670350770369848300,1.934848388671875,-0.008673667907714844,-0.0009121894836425781,0.0034137368202209473
1670350770379773700,1.944773681640625,-0.13828659057617188,-0.023698806762695312,-0.005861937999725342
1670350770389698800,1.95469873046875,-0.14627456665039062,-0.02611541748046875,-0.021635234355926514
1670350770399624200,1.964624267578125,-0.14296913146972656,-0.03686714172363281,-0.034327030181884766
1670350770409549600,1.974549560546875,-0.14694881439208984,-0.013996124267578125,-0.07597941160202026
1670350770419475000,1.984474853515625,-0.028288841247558594,0.0015244483947753906,-0.10419833660125732
1670350770429400000,1.994400146484375,0.13830184936523438,-0.030978679656982422,-0.05269825458526611
1670350770439325400,2.004325439453125,0.23227787017822266,-0.054906368255615234,-0.0050664544105529785
1670350770449250600,2.01425048828125,0.2831401824951172,-0.03993558883666992,-0.0007131099700927734
1670350770459176000,2.024176025390625,0.22311878204345703,0.013483047485351562,0.05130434036254883
1670350770469101000,2.03410107421875,0.060710906982421875,0.01371145248413086,0.08366638422012329
1670350770479026400,2.0440263671875,-0.03305816650390625,-0.00019884109497070312,0.03331500291824341
1670350770488951600,2.05395166015625,-0.07365894317626953,-0.006514549255371094,-0.048602163791656494
1670350770498877000,2.063876953125,-0.12573909759521484,0.006802082061767578,-0.08197641372680664
1670350770508802000,2.073802001953125,-0.09724140167236328,0.011148929595947266,-0.04636800289154053
1670350770518727400,2.0837275390625,-0.0552520751953125,0.013453483581542969,-0.0259016752243042
1670350770528652800,2.09365283203125,-0.04934501647949219,0.004121303558349609,0.029109179973602295
1670350770538578000,2.103577880859375,0.00118255615234375,0.004409313201904297,0.07864809036254883
1670350770548503300,2.11350341796875,0.10731792449951172,0.009374618530273438,0.07884877920150757
1670350770558428400,2.123428466796875,0.17183589935302734,0.011263847351074219,0.06875169277191162
1670350770568353800,2.133353759765625,0.13416767120361328,0.007951736450195312,0.06185483932495117
1670350770578279000,2.14327880859375,0.059459686279296875,-0.007134914398193359,0.010390222072601318
1670350770588204300,2.153204345703125,0.021051406860351562,-0.040497779846191406,-0.0038721561431884766
1670350770598129400,2.16312939453125,0.07503604888916016,-0.05924224853515625,0.01886385679244995
1670350770608054800,2.1730546875,0.11647891998291016,-0.05227327346801758,0.02846628427505493
1670350770617980200,2.182980224609375,0.13624191284179688,-0.02474069595336914,0.01506352424621582
1670350770627905300,2.1929052734375,0.10419464111328125,-0.0028972625732421875,-0.029284417629241943
1670350770637830700,2.20283056640625,-0.0165252685546875,0.008748054504394531,-0.06420576572418213
1670350770647755800,2.212755859375,-0.17771434783935547,0.0369572639465332,-0.02379631996154785
1670350770657681200,2.22268115234375,-0.2518911361694336,0.0491490364074707,-0.010354876518249512
1670350770667606300,2.232606201171875,-0.1720113754272461,0.057135581970214844,-0.0381198525428772
1670350770677531600,2.24253173828125,-0.10778617858886719,0.048938751220703125,0.01888895034790039
1670350770687456800,2.252456787109375,-0.025976181030273438,0.029502391815185547,0.02047806978225708
1670350770697382100,2.262382080078125,0.08291053771972656,0.007756233215332031,-0.004090011119842529
1670350770707307300,2.272307373046875,0.03242683410644531,-0.02348804473876953,0.05161166191101074
1670350770717232600,2.282232666015625,-0.02448749542236328,-0.0633554458618164,0.029140233993530273
1670350770727158000,2.292157958984375,0.015709877014160156,-0.07606315612792969,-0.015592694282531738
1670350770737083100,2.302083251953125,0.06218528747558594,-0.04382801055908203,-0.00884389877319336
1670350770747008500,2.312008544921875,0.032578468322753906,-0.00286865234375,0.007385671138763428
1670350770756933600,2.32193359375,0.07665538787841797,0.027716636657714844,-0.02158987522125244
1670350770766859000,2.33185888671875,0.08253002166748047,0.03840923309326172,0.03307962417602539
1670350770776784100,2.3417841796875,0.022459030151367188,0.04868030548095703,0.07531499862670898
1670350770786709500,2.35170947265625,-0.0010585784912109375,0.05618000030517578,0.09482473134994507
1670350770796634600,2.361634521484375,-0.11338233947753906,0.044367313385009766,0.07274413108825684
1670350770806560000,2.37156005859375,-0.040612220764160156,0.013910293579101562,0.06926137208938599
1670350770816485000,2.381485107421875,-0.1314411163330078,-0.10307645797729492,0.023074090480804443
1670350770826410500,2.391410400390625,-0.2822761535644531,-0.1484694480895996,-0.19304609298706055
1670350770836335900,2.4013359375,0.03676795959472656,0.0007829666137695312,-0.32554519176483154
1670350770846261000,2.411260986328125,0.2115335464477539,0.13432931900024414,-0.13045144081115723
1670350770856186400,2.421186279296875,0.2808685302734375,0.10955190658569336,0.054644882678985596
1670350770866111500,2.431111572265625,0.2467670440673828,-0.01777172088623047,0.16494786739349365
1670350770876036900,2.441036865234375,0.04688262939453125,-0.09270429611206055,0.15072757005691528
1670350770885962000,2.4509619140625,-0.2916278839111328,-0.0905156135559082,0.07334315776824951
1670350770895887400,2.460887451171875,-0.5272426605224609,-0.07420635223388672,-0.042512476444244385
1670350770905812500,2.4708125,-0.3447456359863281,-0.019407272338867188,-0.05471616983413696
1670350770915737900,2.48073779296875,0.02521038055419922,0.06756973266601562,0.03217673301696777
1670350770925663200,2.490663330078125,0.33493900299072266,0.14534997940063477,0.07539868354797363
1670350770935588400,2.50058837890625,0.45633888244628906,0.15451717376708984,0.006634771823883057
1670350770945513700,2.510513671875,0.4538860321044922,0.055982112884521484,-0.04966217279434204
1670350770955438800,2.52043896484375,0.3244476318359375,-0.006402492523193359,-0.03151500225067139
1670350770965364200,2.5303642578125,0.10295486450195312,-0.05858802795410156,-0.061700642108917236
1670350770975289300,2.540289306640625,-0.13857746124267578,-0.07914972305297852,-0.0030369162559509277
1670350770985214700,2.550214599609375,-0.2727775573730469,-0.04688119888305664,0.08040422201156616
1670350770995139800,2.560139892578125,-0.30125904083251953,-0.03580904006958008,0.10225963592529297
1670350771005065200,2.570065185546875,-0.12453842163085938,-0.03864765167236328,0.13305634260177612
1670350771014990300,2.579990234375,0.04413318634033203,0.005725383758544922,0.26859521865844727
1670350771024915700,2.589915771484375,0.11318778991699219,-0.08744239807128906,0.16529250144958496
1670350771034841000,2.599841064453125,0.28501319885253906,-0.1658005714416504,-0.15040874481201172
1670350771044766200,2.60976611328125,-0.11831951141357422,-0.04493284225463867,-0.18386638164520264
1670350771054691600,2.619691650390625,-0.3111085891723633,0.06733226776123047,0.006977498531341553
1670350771064617000,2.629616943359375,-0.0857553482055664,0.06662893295288086,0.17202335596084595
1670350771074542300,2.639542236328125,-0.13434314727783203,-0.07675695419311523,0.18902099132537842
1670350771084467500,2.649467529296875,-0.1703176498413086,-0.21525239944458008,0.00908970832824707
1670350771094392800,2.659392822265625,-0.11866378784179688,-0.21907758712768555,-0.1456010937690735
1670350771104318200,2.669318115234375,-0.21980667114257812,-0.17607641220092773,0.02141672372817993
1670350771114243600,2.67924365234375,-0.3658561706542969,-0.14479398727416992,0.17317813634872437
1670350771124168700,2.689168701171875,-0.29675769805908203,-0.052269935607910156,0.17749059200286865
1670350771134094000,2.699093994140625,-0.2083454132080078,0.035433292388916016,0.04480975866317749
1670350771144019500,2.70901953125,-0.08824348449707031,0.06062602996826172,-0.032661616802215576
1670350771153944800,2.71894482421875,0.0800638198852539,0.08236551284790039,-0.18426987528800964
1670350771163870000,2.728869873046875,0.2304515838623047,0.12306785583496094,-0.24850887060165405
1670350771173795300,2.73879541015625,0.22666549682617188,0.15366649627685547,-0.22431576251983643
1670350771183720700,2.748720703125,0.09864616394042969,0.10992240905761719,-0.15486130118370056
1670350771193646000,2.75864599609375,0.12146568298339844,0.06644630432128906,-0.08497649431228638
1670350771203571200,2.7685712890625,0.12526798248291016,0.05392646789550781,-0.009091436862945557
1670350771213496600,2.77849658203125,0.13404178619384766,0.059870243072509766,-0.05227309465408325
1670350771223422000,2.788421875,0.10064125061035156,0.06050920486450195,-0.11971348524093628
1670350771233347300,2.798347412109375,0.04008197784423828,0.013339519500732422,-0.1907910406589508
1670350771243272400,2.8082724609375,-0.03297996520996094,0.010934829711914062,-0.1550036370754242
1670350771253197800,2.81819775390625,0.046535491943359375,0.09235334396362305,-0.11571508646011353
1670350771263123200,2.828123291015625,0.1182708740234375,0.11007070541381836,-0.09360313415527344
1670350771273048600,2.838048583984375,0.23430156707763672,0.06006288528442383,0.0751490592956543
1670350771282973700,2.8479736328125,0.16776084899902344,0.02593517303466797,0.1546580195426941
1670350771292899000,2.857899169921875,0.10029220581054688,0.04361391067504883,0.11055845022201538
1670350771302824400,2.867824462890625,-0.006243705749511719,0.044770240783691406,0.08627104759216309
1670350771312749800,2.877749755859375,-0.12790489196777344,0.006679534912109375,0.0480312705039978
1670350771322675000,2.887675048828125,-0.29776763916015625,-0.045871734619140625,-0.0035431385040283203
1670350771332600300,2.897600341796875,-0.3506145477294922,-0.0505523681640625,-0.09402680397033691
1670350771342525700,2.907525634765625,-0.23186874389648438,-0.010606765747070312,-0.010144710540771484
1670350771352451000,2.917451171875,-0.0922098159790039,0.04134082794189453,0.046188533306121826
1670350771362376200,2.927376220703125,-0.08940887451171875,0.012782096862792969,0.02883017063140869
1670350771372301600,2.937301513671875,-0.08217334747314453,-0.0523223876953125,-0.027428746223449707
1670350771382227000,2.94722705078125,-0.01403045654296875,-0.059319496154785156,-0.045574843883514404
1670350771392152300,2.95715234375,0.11179447174072266,-0.004931449890136719,-0.07680153846740723
1670350771402077400,2.967077392578125,0.3701791763305664,0.08986806869506836,0.07145059108734131
1670350771412002800,2.9770029296875,0.3920154571533203,0.11033487319946289,0.13446176052093506
1670350771421928200,2.98692822265625,0.3040332794189453,0.024578094482421875,0.0853005051612854
1670350771431853600,2.996853515625,0.11231613159179688,-0.053966522216796875,0.05940091609954834
1670350771441778700,3.00677880859375,-0.07137584686279297,-0.06073188781738281,0.09509557485580444
1670350771451704000,3.0167041015625,-0.21017742156982422,-0.012331962585449219,0.08177638053894043
1670350771461629400,3.02662939453125,-0.2980785369873047,0.006175518035888672,-0.006206393241882324
1670350771471554800,3.036554931640625,-0.352630615234375,-0.0017604827880859375,-0.08876156806945801
1670350771481480000,3.04647998046875,-0.3249530792236328,0.030442237854003906,-0.08901286125183105
1670350771491405300,3.0564052734375,-0.13098812103271484,0.07008743286132812,-0.07513320446014404
1670350771501330700,3.06633056640625,0.050438880920410156,0.1251511573791504,-0.04380524158477783
1670350771511255800,3.076255859375,0.20586681365966797,0.15468168258666992,0.10005724430084229
1670350771521181200,3.08618115234375,0.3078641891479492,0.1748790740966797,0.28377074003219604
1670350771531106600,3.0961064453125,0.2207012176513672,0.15044498443603516,0.271801233291626
1670350771541031700,3.10603173828125,0.1661853790283203,0.045084476470947266,0.23287427425384521
1670350771550957000,3.11595703125,0.1580209732055664,-0.16826963424682617,-0.054306983947753906
1670350771560882200,3.125882080078125,-0.09206390380859375,-0.14755010604858398,-0.027475714683532715
1670350771570807600,3.1358076171875,-0.13477134704589844,-0.12511682510375977,-0.02477729320526123
1670350771580732700,3.145732666015625,-0.12896156311035156,-0.2591700553894043,-0.27987754344940186
1670350771590658000,3.155657958984375,-0.05263805389404297,-0.38813018798828125,-0.4361780881881714
1670350771600583200,3.165583251953125,0.13735103607177734,-0.34471750259399414,-0.47054848074913025
1670350771610508500,3.175508544921875,0.09268665313720703,-0.14548492431640625,-0.4330344796180725
1670350771620433700,3.18543359375,-0.038677215576171875,0.05131053924560547,-0.3225850462913513
1670350771630359000,3.195359130859375,-0.20323467254638672,0.18656301498413086,-0.17190003395080566
1670350771640284400,3.205284423828125,-0.4098339080810547,0.2213892936706543,-0.16136646270751953
1670350771650209500,3.21520947265625,-0.5330467224121094,0.1695876121520996,-0.18783390522003174
1670350771660135000,3.225135009765625,-0.5037260055541992,0.10581731796264648,-0.2313869595527649
1670350771670060000,3.23506005859375,-0.2581977844238281,0.005954742431640625,-0.25943148136138916
1670350771679985400,3.2449853515625,-0.049332618713378906,-0.11139440536499023,-0.3400765061378479
1670350771689910500,3.25491064453125,0.1096811294555664,-0.22014331817626953,-0.4110543727874756
1670350771699836000,3.2648359375,0.14490413665771484,-0.2057337760925293,-0.1512359380722046
1670350771709761000,3.274760986328125,0.33180713653564453,-0.05216503143310547,0.18451416492462158
1670350771719686400,3.284686279296875,0.4276723861694336,0.08658456802368164,0.4547771215438843
1670350771729611800,3.29461181640625,0.45483970642089844,0.21795272827148438,0.634648323059082
1670350771739537000,3.304536865234375,0.46782875061035156,0.277069091796875,0.6212860345840454
1670350771749462300,3.314462158203125,0.35308837890625,0.18128585815429688,0.4046734571456909
1670350771759387400,3.324387451171875,0.12345123291015625,0.020032405853271484,0.22050607204437256
1670350771769312800,3.334312744140625,0.027362823486328125,-0.10290670394897461,0.07276678085327148
1670350771779238000,3.34423779296875,-0.05048179626464844,-0.12264823913574219,0.0328524112701416
1670350771789163300,3.354163330078125,-0.14545059204101562,-0.05262041091918945,0.05210709571838379
1670350771799088400,3.36408837890625,-0.1667776107788086,0.03184843063354492,0.09317231178283691
1670350771809013800,3.374013671875,-0.1879253387451172,0.10853385925292969,0.2688804864883423
1670350771818939000,3.38393896484375,-0.07889652252197266,0.10595703125,0.20530366897583008
1670350771828864300,3.3938642578125,0.04039955139160156,0.07436609268188477,0.07062363624572754
1670350771838789600,3.40378955078125,0.17192649841308594,-0.0020437240600585938,-0.017881035804748535
1670350771848714800,3.41371484375,0.32975101470947266,-0.03801155090332031,0.012151479721069336
1670350771858640100,3.42364013671875,0.3537740707397461,-0.016223907470703125,0.05721008777618408
1670350771868565200,3.433565185546875,0.095428466796875,-0.007779121398925781,0.03299880027770996
1670350771878490600,3.44349072265625,-0.1843852996826172,-0.025461196899414062,-0.010236620903015137
1670350771888415700,3.453415771484375,-0.9069209098815918,0.03115558624267578,-0.08546626567840576
1670350771898341000,3.463341064453125,-0.36785125732421875,-0.06430721282958984,-0.03607463836669922
1670350771908266200,3.473266357421875,-0.059111595153808594,-0.05141639709472656,0.0724109411239624
1670350771918191600,3.483191650390625,0.471893310546875,0.13246536254882812,0.08364295959472656
1670350771928116700,3.49311669921875,0.6651229858398438,0.19605588912963867,0.2723132371902466
1670350771938042000,3.5030419921875,0.5176725387573242,-0.008974552154541016,0.34215986728668213
1670350771947967500,3.512967529296875,0.35025501251220703,-0.2232508659362793,0.19593465328216553
1670350771957892600,3.522892578125,0.1101675033569336,-0.21516132354736328,-0.10654234886169434
1670350771967818000,3.53281787109375,-0.008794784545898438,-0.1019444465637207,-0.20286405086517334
1670350771977743400,3.542743408203125,-0.0813751220703125,-0.04384136199951172,-0.15726745128631592
1670350771987668500,3.55266845703125,-0.15275192260742188,-0.0265045166015625,-0.13912570476531982
1670350771997593900,3.56259375,-0.21312332153320312,0.05833768844604492,-0.07953238487243652
1670350772007519200,3.572519287109375,-0.22270870208740234,0.1390671730041504,-0.0240325927734375
1670350772017444600,3.582444580078125,-0.2110128402709961,0.13869857788085938,-0.07613205909729004
1670350772027369700,3.59236962890625,-0.23774147033691406,0.06193065643310547,-0.1215747594833374
1670350772037295000,3.602295166015625,-0.17056751251220703,-0.026133060455322266,-0.06800317764282227
1670350772047220500,3.612220458984375,0.017528533935546875,-0.02973794937133789,0.12222456932067871
1670350772057145900,3.622145751953125,0.11315536499023438,0.024963855743408203,0.13852441310882568
1670350772067071000,3.632071044921875,0.18400955200195312,0.023885726928710938,0.11929130554199219
1670350772076996400,3.641996337890625,0.20699787139892578,-0.008563041687011719,0.17106759548187256
1670350772086921700,3.651921630859375,0.30062198638916016,0.005650043487548828,0.513034462928772
1670350772096847000,3.66184716796875,0.3788948059082031,0.14438772201538086,0.815977931022644
1670350772106772200,3.671772216796875,0.017679214477539062,0.2632122039794922,0.6213269233703613
1670350772116697600,3.681697509765625,-0.296051025390625,0.18863773345947266,0.33793163299560547
1670350772126623000,3.691623046875,-0.49785614013671875,-0.003681659698486328,-0.015674829483032227
1670350772136548400,3.70154833984375,-0.3283805847167969,-0.04823780059814453,0.019016742706298828
1670350772146473500,3.711473388671875,-0.054653167724609375,-0.03880739212036133,0.3369485139846802
1670350772156398800,3.72139892578125,0.34407901763916016,0.08180665969848633,0.5316762924194336
1670350772166324200,3.73132421875,0.2606964111328125,0.13073158264160156,0.3802635669708252
1670350772176249600,3.74124951171875,0.3908252716064453,0.12453889846801758,0.2645878791809082
1670350772186174700,3.7511748046875,0.41738414764404297,0.08214187622070312,0.19887733459472656
1670350772196100000,3.76110009765625,0.2546806335449219,0.05187416076660156,0.17512106895446777
1670350772206025500,3.771025390625,0.0380706787109375,0.08365297317504883,-0.01226496696472168
1670350772215950800,3.780950927734375,-0.07795524597167969,0.122283935546875,-0.16424870491027832
1670350772225876000,3.7908759765625,-0.45323753356933594,0.19849777221679688,-0.2204853892326355
1670350772235801300,3.80080126953125,-1.1606197357177734,0.32210540771484375,-0.25685614347457886
1670350772245726700,3.810726806640625,-1.315603256225586,0.31824636459350586,-0.294894814491272
1670350772255652000,3.820652099609375,-0.9858269691467285,0.23720312118530273,-0.39539000391960144
1670350772265577200,3.8305771484375,-0.4580211639404297,0.0661931037902832,-0.5534044504165649
1670350772275502600,3.840502685546875,0.30225086212158203,-0.14040231704711914,-0.512502908706665
1670350772285428000,3.850427978515625,1.0203475952148438,-0.2146902084350586,-0.19302141666412354
1670350772295353300,3.860353271484375,1.500457763671875,-0.1732478141784668,0.07279479503631592
1670350772305278500,3.870278564453125,1.7550058364868164,-0.33563709259033203,0.389337420463562
1670350772315203800,3.880203857421875,1.7232837677001953,-1.4639697074890137,0.01704227924346924
1670350772325129200,3.890129150390625,1.3632001876831055,-0.6439189910888672,-0.7098776698112488
1670350772335054600,3.9000546875,-0.12557601928710938,-0.05035591125488281,-0.8965328931808472
1670350772344979700,3.909979736328125,-0.5504999160766602,-0.14971303939819336,-0.568989634513855
1670350772354905000,3.919905029296875,-0.7121162414550781,-0.2127366065979004,-0.06106513738632202
1670350772364830500,3.92983056640625,-0.9866876602172852,-0.12878990173339844,-0.021345555782318115
1670350772374755800,3.939755859375,-1.0634169578552246,0.09285926818847656,0.050521135330200195
1670350772384681000,3.949680908203125,-0.7057709693908691,0.20238780975341797,0.20887106657028198
1670350772394606300,3.9596064453125,-0.19989585876464844,0.09630393981933594,0.3088955879211426
1670350772404531700,3.96953173828125,0.1517801284790039,-0.036266326904296875,0.13489198684692383
1670350772414457000,3.97945703125,0.03211688995361328,0.012766838073730469,-0.0989304780960083
1670350772424382200,3.98938232421875,-0.0943746566772461,-0.0385284423828125,-0.027447402477264404
1670350772434307600,3.9993076171875,0.1739053726196289,-0.23357582092285156,-0.2987208962440491
1670350772444233000,4.00923291015625,0.5353689193725586,-0.26044654846191406,-0.0200120210647583
1670350772454158300,4.019158447265625,0.3324728012084961,-0.10188865661621094,0.06304782629013062
1670350772464083500,4.02908349609375,-0.04919910430908203,0.08816242218017578,0.08111414313316345
1670350772474008800,4.0390087890625,-0.023612022399902344,0.036373138427734375,0.11777535080909729
1670350772483934200,4.048934326171875,-0.1219635009765625,-0.07346487045288086,-0.026341915130615234
1670350772493859600,4.058859619140625,-0.24155807495117188,-0.09679651260375977,-0.2404996156692505
1670350772503784700,4.06878466796875,-0.23206233978271484,-0.07866048812866211,-0.3403979539871216
1670350772513710000,4.0787099609375,-0.20856857299804688,-0.09330892562866211,-0.37208092212677
1670350772523635500,4.088635498046875,-0.1856069564819336,-0.15729761123657227,-0.4003771245479584
1670350772533560800,4.098560791015625,-0.19211673736572266,-0.21506738662719727,-0.36816269159317017
1670350772543486000,4.10848583984375,-0.13258075714111328,-0.2065443992614746,-0.21552415192127228
1670350772553411300,4.118411376953125,-0.006534576416015625,-0.13054895401000977,-0.012918204069137573
1670350772563336700,4.128336669921875,0.12442207336425781,-0.0028710365295410156,0.36027249693870544
1670350772573262000,4.138261962890625,0.36882877349853516,0.078887939453125,0.6407262086868286
1670350772583187500,4.1481875,0.32564830780029297,-0.10837793350219727,0.7248090505599976
1670350772593112600,4.158112548828125,0.4115867614746094,0.03070545196533203,0.4822954535484314
1670350772603038000,4.168037841796875,0.4467182159423828,0.03477001190185547,0.4079124927520752
1670350772612963300,4.17796337890625,0.1885385513305664,-0.07454490661621094,-0.09990429878234863
1670350772622888700,4.187888671875,-0.07923221588134766,-0.2873849868774414,-0.6528788208961487
1670350772632813800,4.197813720703125,-0.28580760955810547,-0.3367424011230469,-1.1415969133377075
1670350772642739200,4.2077392578125,-0.25492095947265625,-0.5689821243286133,-1.1891080141067505
1670350772652664300,4.217664306640625,-0.4007692337036133,-0.47668933868408203,-1.581371545791626
1670350772662589700,4.227589599609375,-0.19201374053955078,-0.4531879425048828,-1.202243685722351
1670350772672514800,4.237514892578125,0.31035900115966797,-0.365602970123291,-0.9153143763542175
1670350772682440200,4.247440185546875,0.5147590637207031,-0.25754737854003906,-0.48866409063339233
1670350772692365300,4.257365234375,0.43401527404785156,-0.17218446731567383,-0.34384945034980774
1670350772702290700,4.267290771484375,0.4268198013305664,-0.11589193344116211,-0.14534461498260498
1670350772712215800,4.2772158203125,0.34929561614990234,-0.05709028244018555,0.2127089947462082
1670350772722141200,4.28714111328125,0.08372020721435547,0.07244205474853516,0.48690515756607056
1670350772732066600,4.297066650390625,-0.1964893341064453,0.26784658432006836,0.627204179763794
1670350772741991700,4.30699169921875,-0.3745403289794922,0.3382415771484375,0.6169133186340332
1670350772751917000,4.3169169921875,-0.713557243347168,0.3007478713989258,0.7151592969894409
1670350772761842200,4.32684228515625,-0.7498846054077148,0.27312421798706055,0.7540335655212402
1670350772771767600,4.336767578125,-0.8434090614318848,0.2850666046142578,0.6779663562774658
1670350772781692700,4.346692626953125,-0.8081316947937012,0.2919793128967285,0.4420005679130554
1670350772791618000,4.3566181640625,-0.675173282623291,0.25769805908203125,0.2399844378232956
1670350772801543200,4.366543212890625,-0.4627647399902344,0.18055963516235352,0.1740214228630066
1670350772811468500,4.376468505859375,-0.2343606948852539,0.11835384368896484,0.21419817209243774
1670350772821393700,4.3863935546875,0.00371551513671875,0.14119768142700195,0.2817648649215698
1670350772831319000,4.396319091796875,0.2160491943359375,0.06887245178222656,0.20134210586547852
1670350772841244400,4.406244384765625,0.34770774841308594,-0.026668548583984375,0.0501197874546051
1670350772851169500,4.41616943359375,0.4366931915283203,-0.10885953903198242,-0.030163124203681946
1670350772861095000,4.426094970703125,0.4708261489868164,-0.09593391418457031,-0.06609565019607544
1670350772871020000,4.43602001953125,0.3095674514770508,-0.050609588623046875,-0.12064731866121292
1670350772880945400,4.4459453125,0.029936790466308594,-0.03511953353881836,-0.1123710349202156
1670350772890870500,4.45587060546875,-0.13637733459472656,-0.044011592864990234,-0.11725004017353058
1670350772900796000,4.4657958984375,-0.11829757690429688,-0.060059547424316406,-0.14030583202838898
1670350772910721000,4.475720947265625,-0.011816024780273438,-0.014046669006347656,-0.14734327793121338
1670350772920646400,4.485646484375,-0.04833221435546875,0.02368021011352539,0.06517660617828369
1670350772930571800,4.49557177734375,-0.1035299301147461,-0.06340265274047852,-0.0454881489276886
1670350772940497000,4.505496826171875,-0.06788063049316406,0.021961688995361328,-0.28837302327156067
1670350772950422300,4.51542236328125,-0.06124114990234375,0.06685876846313477,-0.11859768629074097
1670350772960347400,4.525347412109375,0.050182342529296875,-0.13154125213623047,-0.08775048702955246
1670350772970272800,4.535272705078125,0.3718729019165039,-0.08623600006103516,-0.3022712469100952
1670350772980198000,4.545197998046875,0.45754146575927734,-0.0910334587097168,-0.10269105434417725
1670350772990123300,4.555123291015625,0.40277576446533203,-0.25714111328125,-0.15279026329517365
1670350773000048600,4.565048583984375,0.20766353607177734,-0.16554832458496094,-0.16825349628925323
1670350773009974000,4.57497412109375,-0.11826705932617188,-0.11010599136352539,0.011505179107189178
1670350773019899100,4.584899169921875,-0.33861637115478516,-0.03020620346069336,-0.026457764208316803
1670350773029824500,4.594824462890625,-0.4388246536254883,0.09239912033081055,0.04207804799079895
1670350773039750000,4.60475,-0.49376869201660156,0.048120975494384766,0.07822158187627792
1670350773049675300,4.61467529296875,-0.21712970733642578,0.14367008209228516,-0.006190218031406403
1670350773059600400,4.624600341796875,0.09988021850585938,0.06621789932250977,-0.017109937965869904
1670350773069525800,4.63452587890625,0.22110843658447266,-0.04838752746582031,0.0016134679317474365
1670350773079451100,4.644451171875,0.23194313049316406,-0.07209587097167969,0.025666214525699615
1670350773089376500,4.65437646484375,0.13383865356445312,-0.047679901123046875,-0.012958258390426636
1670350773099301600,4.664301513671875,0.06966495513916016,-0.013194084167480469,0.02126159518957138
1670350773109227000,4.67422705078125,0.015582084655761719,-0.006937503814697266,0.05877570062875748
1670350773119152400,4.68415234375,-0.054131507873535156,0.022858619689941406,0.005659453570842743
1670350773129077800,4.694077880859375,-0.2497425079345703,0.02607107162475586,-0.02246861159801483
1670350773139003000,4.7040029296875,-0.4236640930175781,0.008717060089111328,-0.04496685415506363
1670350773148928300,4.71392822265625,-0.5014410018920898,0.01441049575805664,-0.0501328743994236
1670350773158853600,4.723853515625,-0.45899391174316406,0.0101318359375,0.00932406634092331
1670350773168779000,4.733779052734375,-0.3595728874206543,0.01724100112915039,0.02408652752637863
1670350773178704400,4.743704345703125,-0.1188201904296875,0.03241443634033203,0.03721506893634796
1670350773188629500,4.75362939453125,0.11568355560302734,0.05422019958496094,0.12551751732826233
1670350773198555000,4.763554931640625,0.2640399932861328,0.049402713775634766,0.09642960876226425
1670350773208480300,4.773480224609375,0.3631105422973633,0.015888214111328125,-0.012020871043205261
1670350773218405600,4.783405517578125,0.3503389358520508,-0.055608272552490234,-0.05058923736214638
1670350773228330800,4.793330810546875,0.26323413848876953,-0.11306905746459961,-0.10254901647567749
1670350773238256000,4.803256103515625,0.15015029907226562,-0.14024686813354492,-0.09027066826820374
1670350773248181500,4.813181396484375,-0.0430450439453125,-0.1299734115600586,-0.09482806921005249
1670350773258107000,4.82310693359375,-0.19801998138427734,-0.10992574691772461,-0.014733336865901947
1670350773268032000,4.833031982421875,-0.22191715240478516,-0.06500959396362305,0.009883597493171692
1670350773277957400,4.842957275390625,-0.10515022277832031,-0.002705097198486328,0.03913132846355438
1670350773287882800,4.8528828125,0.03983306884765625,0.038053035736083984,0.10435155034065247
1670350773297808100,4.86280810546875,0.09056949615478516,0.07097625732421875,0.021891944110393524
1670350773307733200,4.872733154296875,0.10280799865722656,0.03259849548339844,-0.06662386655807495
1670350773317658600,4.88265869140625,0.13390636444091797,-0.007839679718017578,-0.0914323553442955
1670350773327584000,4.892583984375,0.17694091796875,-0.05099916458129883,-0.08747206628322601
1670350773337509400,4.90250927734375,0.21315383911132812,-0.0996246337890625,-0.07938852161169052
1670350773347434500,4.9124345703125,0.11729907989501953,-0.11043977737426758,-0.01646619290113449
1670350773357359900,4.92235986328125,-0.08593940734863281,-0.08243179321289062,0.017872989177703857
1670350773367285200,4.93228515625,-0.06725597381591797,0.0540471076965332,0.18435105681419373
1670350773377210600,4.942210693359375,-0.4999260902404785,0.1992959976196289,-0.04469771683216095
1670350773387135700,4.9521357421875,-0.6010355949401855,0.16197872161865234,-0.15157853066921234
1670350773397061000,4.96206103515625,-0.9300446510314941,0.011753082275390625,0.041157253086566925
1670350773406986500,4.971986572265625,-0.681114673614502,-0.1299610137939453,0.040046095848083496
1670350773416912000,4.981911865234375,0.05291938781738281,-0.23746109008789062,-0.028822660446166992
1670350773426837000,4.9918369140625,0.7331581115722656,-0.26773643493652344,-0.029456768184900284
1670350773436762400,5.001762451171875,1.1533527374267578,-0.22119855880737305,-0.11399543285369873
1670350773446687700,5.011687744140625,1.4048290252685547,-0.031908512115478516,-0.10259337723255157
1670350773456613000,5.021613037109375,1.384683609008789,0.08627796173095703,0.03491102159023285
1670350773466538200,5.031538330078125,0.8300762176513672,0.02432537078857422,0.2808062434196472
1670350773476463600,5.041463623046875,0.0027856826782226562,-0.07807016372680664,0.2194604128599167
1670350773486389000,5.051388916015625,-0.8571949005126953,0.04174613952636719,-0.15023308992385864
1670350773496314400,5.061314453125,-1.308304786682129,0.1604461669921875,-0.16789138317108154
1670350773506239500,5.071239501953125,-1.328369140625,0.14153718948364258,0.10466309636831284
1670350773516164900,5.081164794921875,-0.9711894989013672,0.08071088790893555,0.1416499763727188
1670350773526090200,5.09109033203125,-0.5595455169677734,0.07289791107177734,0.07280698418617249
1670350773536015600,5.101015625,-0.044951438903808594,0.12076520919799805,0.13219867646694183
1670350773545940700,5.110940673828125,0.41051769256591797,0.07871770858764648,0.06075551360845566
1670350773555866000,5.1208662109375,0.5343618392944336,-0.029104232788085938,-0.07868365198373795
1670350773565791500,5.13079150390625,0.613429069519043,-0.09372138977050781,0.08596770465373993
1670350773575716900,5.140716796875,0.4848518371582031,-0.10920143127441406,-0.11919739097356796
1670350773585642000,5.15064208984375,0.21953773498535156,-0.004393577575683594,-0.1462368369102478
1670350773595567400,5.1605673828125,0.2708005905151367,-0.07855939865112305,0.016012437641620636
1670350773605492700,5.17049267578125,0.3752012252807617,-0.20063161849975586,0.04247395321726799
1670350773615418000,5.180418212890625,0.4216947555541992,-0.15396976470947266,0.04228151589632034
1670350773625343200,5.19034326171875,0.23428058624267578,-0.10113096237182617,0.012065500020980835
1670350773635268600,5.2002685546875,-0.14190673828125,-0.0828704833984375,0.0030283555388450623
1670350773645194000,5.210194091796875,-0.4755897521972656,0.0008649826049804688,-0.021155185997486115
1670350773655119400,5.220119384765625,-0.6974482536315918,0.09105205535888672,-0.026742789894342422
1670350773665044500,5.23004443359375,-0.7891359329223633,0.1090240478515625,0.06401368975639343
1670350773674969900,5.239969970703125,-0.6182346343994141,0.06495141983032227,-0.026530306786298752
1670350773684895200,5.249895263671875,-0.3194851875305176,0.030569076538085938,-0.13708984851837158
1670350773694820600,5.259820556640625,0.057488441467285156,0.08986759185791016,-0.01986328884959221
1670350773704745700,5.269745849609375,0.30223560333251953,0.09446144104003906,0.024149611592292786
1670350773714671000,5.279671142578125,0.3986024856567383,-0.0379481315612793,-0.10870689153671265
1670350773724596500,5.289596435546875,0.13008499145507812,-0.088531494140625,-0.1383478194475174
1670350773734521900,5.29952197265625,-0.45883989334106445,-0.009043693542480469,-0.17230451107025146
1670350773744447000,5.309447021484375,-0.8004651069641113,0.08748102188110352,-0.20279739797115326
1670350773754372400,5.319372314453125,-0.9738712310791016,0.2648334503173828,-0.025189109146595
1670350773764297700,5.329297607421875,-1.7102408409118652,0.021513938903808594,-0.20756255090236664
1670350773774223000,5.33922314453125,0.4400644302368164,-0.25429248809814453,-0.44310852885246277
1670350773784148200,5.349148193359375,1.6826190948486328,-0.11378908157348633,0.2127915918827057
1670350773794073600,5.359073486328125,1.9640979766845703,-0.15945100784301758,0.5769125819206238
1670350773803999000,5.3689990234375,1.6186494827270508,-0.3161749839782715,0.4373510181903839
1670350773813924400,5.37892431640625,1.2916145324707031,-0.3043484687805176,0.13243672251701355
1670350773823849500,5.388849365234375,0.5614376068115234,-0.09183597564697266,0.07431007921695709
1670350773833774800,5.39877490234375,-0.35281848907470703,0.08123493194580078,-0.062143273651599884
1670350773843700200,5.4087001953125,-1.1299304962158203,0.1354079246520996,-0.15374024212360382
1670350773853625600,5.41862548828125,-1.3450965881347656,0.11550092697143555,-0.15463075041770935
1670350773863550700,5.42855078125,-0.8334312438964844,0.04339456558227539,-0.10345801711082458
1670350773873476000,5.43847607421875,-0.41338157653808594,0.022217273712158203,-0.08571720123291016
1670350773883401500,5.4484013671875,-0.3224625587463379,0.09302711486816406,-0.10501296073198318
1670350773893326800,5.458326904296875,-0.13701629638671875,0.10284185409545898,-0.15503033995628357
1670350773903252000,5.468251953125,0.49384403228759766,0.0674448013305664,-0.08593393117189407
1670350773913177300,5.47817724609375,-0.28573036193847656,0.18717479705810547,0.21133026480674744
1670350773923102700,5.488102783203125,-0.6242365837097168,0.014933586120605469,-0.11523811519145966
1670350773933028000,5.498028076171875,-0.30138254165649414,-0.13432025909423828,-0.14839531481266022
1670350773942953200,5.507953125,0.4342317581176758,-0.1819162368774414,-0.05061020702123642
1670350773952878600,5.517878662109375,1.3681182861328125,-0.2370290756225586,0.08868075907230377
1670350773962804000,5.527803955078125,2.1223955154418945,-0.24512863159179688,0.1795419305562973
1670350773972729300,5.537729248046875,1.6893510818481445,-0.21277189254760742,0.3051409423351288
1670350773982654500,5.547654541015625,0.8454761505126953,-0.18064212799072266,0.16813306510448456
1670350773992579800,5.557579833984375,-0.054327964782714844,0.016160964965820312,0.16979257762432098
1670350774002505200,5.567505126953125,-0.9504804611206055,0.21782922744750977,0.13474459946155548
1670350774012430600,5.5774306640625,-1.1048355102539062,0.09611797332763672,-0.0017296923324465752
1670350774022355700,5.587355712890625,-0.9788064956665039,-0.0066280364990234375,-0.08858435600996017
1670350774032281000,5.597281005859375,-0.7219314575195312,0.05268049240112305,-0.12238020449876785
1670350774042206500,5.60720654296875,-0.45554542541503906,0.10745477676391602,-0.23145762085914612
1670350774052131800,5.6171318359375,-0.08091449737548828,0.09435653686523438,-0.2397737354040146
1670350774062057000,5.627056884765625,0.29227638244628906,0.03786659240722656,-0.029035456478595734
1670350774071982300,5.636982421875,-1.1063108444213867,0.23661565780639648,0.08368390053510666
1670350774081907700,5.64690771484375,-1.0657777786254883,0.04750204086303711,-0.490684449672699
1670350774091833000,5.6568330078125,0.12078285217285156,-0.13997125625610352,-0.4033941924571991
1670350774101758200,5.66675830078125,1.0812358856201172,-0.17177581787109375,0.09075484424829483
1670350774111683600,5.67668359375,1.6371469497680664,-0.27809715270996094,0.3370276689529419
1670350774121609000,5.68660888671875,1.2305622100830078,-0.23562049865722656,0.4114091098308563
1670350774131534300,5.696534423828125,0.09049510955810547,-0.08685302734375,0.03128468990325928
1670350774141459500,5.70645947265625,-0.31653499603271484,0.010549545288085938,-0.2546966075897217
1670350774151384800,5.716384765625,-0.23514842987060547,0.12110042572021484,0.13048098981380463
1670350774161310200,5.726310302734375,-0.22774219512939453,0.05547666549682617,0.2651972770690918
1670350774171235600,5.736235595703125,-0.46173954010009766,0.02252674102783203,0.06747383624315262
1670350774181160700,5.74616064453125,-0.332456111907959,0.07065391540527344,-0.06416752189397812
1670350774191086000,5.756086181640625,-0.2238616943359375,0.09915447235107422,-0.0770154595375061
1670350774201011500,5.766011474609375,0.21769046783447266,0.049465179443359375,-0.09145192056894302
1670350774210936800,5.775936767578125,-0.18973636627197266,0.19516801834106445,0.08770104497671127
1670350774220862000,5.785862060546875,-0.6484289169311523,0.08330869674682617,-0.23907312750816345
1670350774230787300,5.795787353515625,-0.4080643653869629,-0.09061861038208008,-0.1067405715584755
1670350774240712700,5.805712646484375,0.20267105102539062,-0.17419862747192383,0.04311253875494003
1670350774250638000,5.81563818359375,0.9944000244140625,-0.2566556930541992,-0.022925429046154022
1670350774260563200,5.825563232421875,1.359267234802246,-0.3088068962097168,0.03946362063288689
1670350774270488600,5.835488525390625,1.1709403991699219,-0.2329096794128418,0.11626552790403366
1670350774280414000,5.8454140625,0.374969482421875,-0.1508321762084961,-0.025560826063156128
1670350774290339300,5.85533935546875,-0.14211177825927734,0.022279739379882812,-0.05211007595062256
1670350774300264400,5.865264404296875,-0.34704160690307617,0.19598054885864258,0.16465038061141968
1670350774310189800,5.87518994140625,-0.48419618606567383,0.1311483383178711,0.19604575634002686
1670350774320115200,5.885115234375,-0.819157600402832,0.11538124084472656,0.0660671666264534
1670350774330040600,5.89504052734375,-0.6636948585510254,0.13482952117919922,-0.07906758785247803
1670350774339965700,5.904965576171875,-0.4574432373046875,0.10862302780151367,-0.025123827159404755
1670350774349891000,5.91489111328125,-0.2525615692138672,0.024058818817138672,-0.10935240238904953
1670350774359816400,5.92481640625,0.1740741729736328,-0.025730609893798828,-0.0759102925658226
1670350774369741800,5.934741943359375,-0.5683374404907227,0.06738042831420898,-0.16703791916370392
1670350774379667000,5.9446669921875,-0.44162464141845703,-0.07119464874267578,-0.3062169849872589
1670350774389592300,5.95459228515625,0.4161720275878906,-0.1499800682067871,-0.09500601887702942
1670350774399517700,5.964517578125,1.367213249206543,-0.1651597023010254,0.14069858193397522
1670350774409443000,5.974443115234375,1.391336441040039,-0.16308021545410156,0.3311302065849304
1670350774419368200,5.9843681640625,0.5011024475097656,-0.15070581436157227,0.15907295048236847
1670350774429293600,5.99429345703125,-0.01589679718017578,-0.14656972885131836,-0.22800597548484802
1670350774439219000,6.004218994140625,-0.3156585693359375,0.0701756477355957,0.06700676679611206
1670350774449144300,6.014144287109375,-0.3181943893432617,0.12262535095214844,0.3077617883682251
1670350774459069700,6.024069580078125,-0.2596244812011719,0.00457000732421875,0.18095719814300537
1670350774468994800,6.033994873046875,-0.3483285903930664,0.05387544631958008,0.025750569999217987
1670350774478920200,6.043920166015625,-0.09871864318847656,0.10259389877319336,-0.0663425400853157
1670350774488845600,6.053845458984375,0.06660175323486328,0.031796932220458984,-0.07792213559150696
1670350774498771000,6.06377099609375,0.3414926528930664,-0.037816524505615234,-0.07698290050029755
1670350774508696000,6.073696044921875,-0.5375714302062988,0.1244349479675293,-0.16342337429523468
1670350774518621400,6.083621337890625,-0.5985622406005859,0.03390979766845703,-0.4699261784553528
1670350774528546800,6.093546875,-0.45859766006469727,-0.0037717819213867188,-0.009290039539337158
1670350774538472200,6.10347216796875,0.035309791564941406,-0.11868047714233398,0.036724358797073364
1670350774548397300,6.113397216796875,0.9393367767333984,-0.22922420501708984,-0.0643865317106247
1670350774558322700,6.12332275390625,1.4401206970214844,-0.22109270095825195,0.1332482099533081
1670350774568248000,6.133248046875,1.1422004699707031,-0.13206005096435547,0.2822898030281067
1670350774578173400,6.14317333984375,0.20854568481445312,-0.12104463577270508,0.06436051428318024
1670350774588098600,6.1530986328125,-0.4205360412597656,-0.06264352798461914,-0.08906301856040955
1670350774598024000,6.16302392578125,-0.9855728149414062,0.1318039894104004,0.10551276803016663
1670350774607949300,6.17294921875,-1.4196820259094238,0.1454310417175293,0.05272518843412399
1670350774617874700,6.182874755859375,-1.5206890106201172,0.061041831970214844,-0.05502036213874817
1670350774627799800,6.1927998046875,-0.8528542518615723,0.041052818298339844,-0.24348662793636322
1670350774637725200,6.20272509765625,0.11385822296142578,-0.0017824172973632812,-0.3065171241760254
1670350774647650600,6.212650634765625,0.47649574279785156,-0.08726024627685547,-0.13007883727550507
1670350774657576000,6.222575927734375,0.3553752899169922,-0.10193490982055664,0.07684217393398285
1670350774667501000,6.2325009765625,0.3863410949707031,-0.08747196197509766,0.006411626935005188
1670350774677426400,6.242426513671875,0.5670385360717773,-0.032750606536865234,-0.10210925340652466
1670350774687351800,6.252351806640625,0.902191162109375,0.03736066818237305,-0.09410896897315979
1670350774697277200,6.262277099609375,1.4555492401123047,-0.043210506439208984,0.039096102118492126
1670350774707202300,6.272202392578125,1.6539764404296875,-0.16916847229003906,0.3010539412498474
1670350774717127700,6.282127685546875,1.001255989074707,-0.10571956634521484,0.31291356682777405
1670350774727053000,6.292052978515625,-0.008884429931640625,0.012156009674072266,0.07705585658550262
1670350774736978400,6.301978515625,-0.6657271385192871,0.041292667388916016,-0.08773452043533325
1670350774746903600,6.311903564453125,-0.7274055480957031,0.06473207473754883,-0.06113190948963165
1670350774756829000,6.321828857421875,-0.5138506889343262,0.0463109016418457,0.13849571347236633
1670350774766754300,6.33175439453125,-0.4650540351867676,0.04288911819458008,0.18856987357139587
1670350774776679700,6.3416796875,-0.10753440856933594,0.06611490249633789,0.02476102113723755
1670350774786604800,6.351604736328125,0.4862813949584961,0.02108287811279297,-0.03482027351856232
1670350774796530200,6.3615302734375,0.7377128601074219,0.04268455505371094,0.05595219135284424
1670350774806455600,6.37145556640625,0.4393129348754883,0.0622711181640625,0.007820382714271545
1670350774816381000,6.381380859375,0.1402120590209961,-0.03674173355102539,-0.19286347925662994
1670350774826306000,6.39130615234375,0.02579212188720703,-0.07807016372680664,-0.15290986001491547
1670350774836231400,6.4012314453125,-0.031065940856933594,-0.06415176391601562,-0.02412794530391693
1670350774846156800,6.41115673828125,-0.10699748992919922,-0.059630393981933594,-0.008149772882461548
1670350774856082200,6.421082275390625,-0.2644510269165039,-0.06158590316772461,-0.028183981776237488
1670350774866007300,6.43100732421875,-0.3291902542114258,-0.06461000442504883,0.029909521341323853
1670350774875932700,6.4409326171875,-0.26809024810791016,-0.05409812927246094,0.07365363836288452
1670350774885858000,6.450858154296875,-0.27024269104003906,-0.03240537643432617,0.009785309433937073
1670350774895783400,6.460783447265625,-0.3335599899291992,-0.0036611557006835938,-0.061824068427085876
1670350774905708500,6.47070849609375,-0.3722562789916992,0.04706716537475586,-0.01870936155319214
1670350774915634000,6.480634033203125,-0.3196291923522949,0.029197216033935547,-0.026163339614868164
1670350774925559300,6.490559326171875,-0.25919246673583984,0.014051437377929688,-0.09080536663532257
1670350774935484700,6.500484619140625,-0.2719583511352539,0.0418086051940918,-0.08801288902759552
1670350774945409800,6.510409912109375,-0.12356758117675781,0.04300355911254883,-0.08248597383499146
1670350774955335200,6.520335205078125,0.3066415786743164,-0.035092830657958984,-0.10635325312614441
1670350774965260500,6.530260498046875,0.6663446426391602,-0.09515666961669922,-0.02614632248878479
1670350774975186000,6.54018603515625,0.6528854370117188,-0.0736684799194336,0.0643690675497055
1670350774985111000,6.550111083984375,0.3929281234741211,-0.05776834487915039,0.07544779777526855
1670350774995036400,6.560036376953125,0.0071659088134765625,-0.06129264831542969,0.03711982071399689
1670350775004961800,6.5699619140625,-0.25199413299560547,-0.03926229476928711,0.02215452492237091
1670350775014887200,6.57988720703125,-0.4522428512573242,-0.0029001235961914062,0.04384584724903107
1670350775024812300,6.589812255859375,-0.5918974876403809,0.01756906509399414,0.048952147364616394
1670350775034737700,6.599737548828125,-0.49241113662719727,0.018191814422607422,-0.023470088839530945
1670350775044663000,6.6096630859375,-0.08903217315673828,0.023908138275146484,-0.12088420987129211
1670350775054588400,6.61958837890625,0.5271272659301758,-0.0009069442749023438,-0.06748874485492706
1670350775064513500,6.629513427734375,0.6338415145874023,-0.034659385681152344,0.06801766157150269
1670350775074439000,6.63943896484375,0.47916603088378906,-0.04957437515258789,0.015757516026496887
1670350775084364300,6.6493642578125,0.4338407516479492,-0.051268577575683594,-0.03889726102352142
1670350775094289700,6.65928955078125,0.38425445556640625,-0.10987997055053711,0.059355124831199646
1670350775104214800,6.66921484375,-0.579411506652832,0.2810502052307129,0.09395568072795868
1670350775114140200,6.67914013671875,-0.9197196960449219,0.039671897888183594,-0.19661560654640198
1670350775124065500,6.6890654296875,0.1341714859008789,-0.1341233253479004,0.09103687107563019
1670350775133991000,6.698990966796875,0.2883272171020508,-0.07709980010986328,0.22909416258335114
1670350775143916000,6.708916015625,0.8932361602783203,-0.15842533111572266,0.2869643568992615
1670350775153841400,6.71884130859375,1.2336835861206055,-0.16436004638671875,0.14268308877944946
1670350775163766800,6.728766845703125,1.488511085510254,-0.032033443450927734,-0.15077023208141327
1670350775173692200,6.738692138671875,1.3010196685791016,0.04079389572143555,0.12671519815921783
1670350775183617300,6.7486171875,-0.5159726142883301,-0.00847482681274414,0.034617796540260315
1670350775193542700,6.758542724609375,-2.096526622772217,-0.038170814514160156,-0.46062368154525757
1670350775203468000,6.768468017578125,-2.352041244506836,0.03163480758666992,-0.430489718914032
1670350775213393400,6.778393310546875,-1.7708020210266113,0.06175947189331055,-0.04652334749698639
1670350775223318500,6.788318603515625,-1.0293560028076172,0.05061149597167969,0.09300057590007782
1670350775233244000,6.798243896484375,-0.4736495018005371,-0.03081512451171875,-0.060879096388816833
1670350775243169300,6.808169189453125,0.14530181884765625,-0.05009126663208008,-0.22213762998580933
1670350775253094700,6.8180947265625,0.647883415222168,0.013083457946777344,-0.15631559491157532
1670350775263019800,6.828019775390625,0.6913118362426758,0.0063915252685546875,-0.0050186216831207275
1670350775272945200,6.837945068359375,0.5390119552612305,-0.15752887725830078,-0.042913079261779785
1670350775282870500,6.84787060546875,0.42005062103271484,-0.2738022804260254,-0.07911843061447144
1670350775292796000,6.8577958984375,0.28592491149902344,-0.24803638458251953,0.08049201965332031
1670350775302721000,6.867720947265625,0.05491828918457031,-0.7866477966308594,0.9068957567214966
1670350775312646400,6.877646484375,-0.25310611724853516,-1.1405181884765625,1.5895578861236572
1670350775322571800,6.88757177734375,-0.3337068557739258,-0.9722270965576172,0.8884761333465576
1670350775332497200,6.8974970703125,-0.3013296127319336,-0.4922938346862793,0.8484654426574707
1670350775342422300,6.90742236328125,-0.17423439025878906,-0.23391246795654297,0.7584025859832764
1670350775352347600,6.91734765625,-0.15224075317382812,-0.18876075744628906,0.43065720796585083
1670350775362273000,6.92727294921875,-0.10638046264648438,-0.29337549209594727,-0.0638817548751831
1670350775372198400,6.937198486328125,-0.12598800659179688,-0.12096214294433594,-0.3390350937843323
1670350775382123500,6.94712353515625,-0.11841106414794922,0.21097946166992188,-0.5285174250602722
1670350775392049000,6.957048828125,0.014203071594238281,0.5071110725402832,-0.562921404838562
1670350775401974300,6.966974365234375,0.13139820098876953,0.5980563163757324,-0.47305989265441895
1670350775411899600,6.976899658203125,0.21392154693603516,0.47954797744750977,-0.41363000869750977
1670350775421824800,6.98682470703125,0.4845609664916992,0.34220170974731445,-0.44856691360473633
1670350775431750100,6.996750244140625,0.7249488830566406,0.3020472526550293,-0.31701815128326416
1670350775441675500,7.006675537109375,0.9271392822265625,0.3724970817565918,-0.3044818639755249
1670350775451601000,7.016600830078125,1.060983657836914,0.5155487060546875,-0.41859495639801025
1670350775461526000,7.026526123046875,0.8689546585083008,0.5044808387756348,-0.43086767196655273
1670350775471451400,7.036451416015625,-0.35898828506469727,0.1654953956604004,-0.14997529983520508
1670350775481376800,7.046376708984375,-0.6542749404907227,-0.1598668098449707,-0.18812382221221924
1670350775491302100,7.05630224609375,-0.5223388671875,-0.28549909591674805,0.10583078861236572
1670350775501227300,7.066227294921875,-0.5073838233947754,-0.25428199768066406,0.36452317237854004
1670350775511152600,7.076152587890625,-0.24986553192138672,-0.2848787307739258,0.13814544677734375
1670350775521078000,7.086078125,-0.26336002349853516,-0.25248003005981445,0.0013325214385986328
1670350775531003400,7.09600341796875,-0.32770490646362305,-0.1446080207824707,0.030767083168029785
1670350775540928500,7.105928466796875,-0.20076274871826172,-0.06452322006225586,-0.05115008354187012
1670350775550854000,7.11585400390625,0.04322528839111328,0.06051492691040039,-0.029668688774108887
1670350775560779300,7.125779296875,0.4234504699707031,0.2146615982055664,0.04218411445617676
1670350775570704600,7.13570458984375,0.6272554397583008,0.34226322174072266,0.08220875263214111
1670350775580629800,7.145629638671875,0.5281038284301758,0.3740653991699219,-0.018817782402038574
1670350775590555100,7.15555517578125,0.2902984619140625,0.3021106719970703,-0.09079301357269287
1670350775600480500,7.16548046875,0.17929649353027344,0.1252279281616211,-0.06922352313995361
1670350775610406000,7.175406005859375,0.045456886291503906,-0.06410074234008789,0.0843961238861084
1670350775620331000,7.1853310546875,-0.21857357025146484,-0.2463245391845703,0.24490225315093994
1670350775630256400,7.19525634765625,-0.347440242767334,-0.26894474029541016,0.2310645580291748
1670350775640181800,7.205181640625,-0.33696985244750977,-0.18253421783447266,0.09208810329437256
1670350775650107100,7.215107177734375,-0.30574655532836914,-0.06882762908935547,-0.04417610168457031
1670350775660032300,7.2250322265625,-0.12729358673095703,0.0099334716796875,-0.2404921054840088
1670350775669957600,7.23495751953125,0.2779083251953125,0.023323535919189453,-0.3732258081436157
1670350775679883000,7.244883056640625,0.5289173126220703,-0.09743022918701172,-0.09568440914154053
1670350775689808400,7.254808349609375,0.7791957855224609,-0.2696380615234375,0.21028947830200195
1670350775699733500,7.2647333984375,0.7541046142578125,-0.3272395133972168,0.38114655017852783
1670350775709659000,7.274658935546875,0.20113849639892578,-0.2391972541809082,0.4110221862792969
1670350775719584300,7.284584228515625,-1.3812556266784668,0.1537618637084961,-0.028064489364624023
1670350775729509600,7.294509521484375,-3.706512451171875,1.1857352256774902,-0.35942578315734863
1670350775739435000,7.30443505859375,-3.1049695014953613,1.1963443756103516,-1.2716020345687866
1670350775749360000,7.314360107421875,0.11972236633300781,0.5916290283203125,-0.29412567615509033
1670350775759285500,7.324285400390625,2.6549339294433594,-0.014381885528564453,0.6041259765625
1670350775769211000,7.3342109375,3.257495880126953,-0.10739946365356445,0.3360656499862671
1670350775779136300,7.34413623046875,2.938760757446289,0.07462882995605469,-0.29384446144104004
1670350775789061400,7.354061279296875,2.1414918899536133,0.43780517578125,-0.653632640838623
1670350775798986800,7.36398681640625,0.01685619354248047,0.2047252655029297,-0.5094517469406128
1670350775808912100,7.373912109375,-2.718353271484375,-0.44539546966552734,-0.1879333257675171
1670350775818837500,7.38383740234375,-4.4914703369140625,-0.9692220687866211,0.5873936414718628
1670350775828762600,7.3937626953125,-4.586984634399414,-0.9243154525756836,1.2979114055633545
1670350775838688000,7.40368798828125,-3.7367706298828125,-0.44698095321655273,1.3978668451309204
1670350775848613400,7.41361328125,-2.3422985076904297,0.0654296875,0.8575197458267212
1670350775858538800,7.423538818359375,-0.8013172149658203,0.32277345657348633,-0.08684229850769043
1670350775868463900,7.4334638671875,0.5316524505615234,0.3551640510559082,-0.6513797044754028
1670350775878389200,7.44338916015625,1.890157699584961,0.3356666564941406,-0.574955940246582
1670350775888314600,7.453314697265625,2.8463687896728516,0.2576751708984375,-0.39842331409454346
1670350775898240000,7.463239990234375,2.7979698181152344,0.14813566207885742,-0.13843786716461182
1670350775908165000,7.4731650390625,2.0225305557250977,-0.003995418548583984,-0.14079785346984863
1670350775918090500,7.483090576171875,1.147745132446289,-0.13271713256835938,-0.5046603679656982
1670350775928016000,7.493015869140625,0.5192594528198242,-0.057059288024902344,-0.4897770881652832
1670350775937941200,7.502941162109375,-0.0397491455078125,-0.018232345581054688,-0.07746124267578125
1670350775947866400,7.512866455078125,-0.5357222557067871,-0.13472747802734375,0.16312503814697266
1670350775957791700,7.522791748046875,-0.8218178749084473,-0.2310490608215332,0.2344731092453003
1670350775967717000,7.532717041015625,-0.9377989768981934,-0.22090864181518555,0.16546154022216797
1670350775977642500,7.542642578125,-0.9782223701477051,-0.1434345245361328,0.05626368522644043
1670350775987567600,7.552567626953125,-0.8265905380249023,-0.011002540588378906,0.08347475528717041
1670350775997493000,7.562492919921875,-0.40350770950317383,0.09074163436889648,0.07833874225616455
1670350776007418400,7.57241845703125,0.02017974853515625,0.09165096282958984,0.036333441734313965
1670350776017343700,7.58234375,0.2934226989746094,0.06055164337158203,0.04976797103881836
1670350776027268900,7.592268798828125,0.38886356353759766,-0.004577159881591797,-0.008280396461486816
1670350776037194200,7.6021943359375,0.36861515045166016,0.0012836456298828125,-0.1004323959350586
1670350776047119600,7.61211962890625,0.3182258605957031,0.054800987243652344,-0.24030077457427979
1670350776057045000,7.622044921875,0.19675540924072266,0.10649347305297852,-0.2598077058792114
1670350776066970000,7.63197021484375,-0.07710456848144531,0.06166410446166992,-0.09048104286193848
1670350776076895500,7.6418955078125,-0.4318723678588867,0.02936840057373047,0.08954453468322754
1670350776086820900,7.65182080078125,-0.6674962043762207,0.025803565979003906,0.17752254009246826
1670350776096746200,7.661746337890625,-0.7224617004394531,-0.0076580047607421875,0.11233866214752197
1670350776106671400,7.67167138671875,-0.5730814933776855,-0.05288410186767578,0.025337934494018555
1670350776116596700,7.6815966796875,-0.15281295776367188,-0.015042781829833984,-0.03572726249694824
1670350776126522000,7.691522216796875,0.2951011657714844,0.10399246215820312,-0.015510201454162598
1670350776136447500,7.701447509765625,0.508819580078125,0.1374220848083496,0.0017756223678588867
1670350776146372600,7.71137255859375,0.48193359375,0.09460163116455078,-0.0299299955368042
1670350776156298000,7.721298095703125,0.3105621337890625,0.08329105377197266,-0.13708233833312988
1670350776166223400,7.731223388671875,0.06661319732666016,0.08196830749511719,-0.0741654634475708
1670350776176148700,7.741148681640625,-0.2478160858154297,0.022308349609375,0.11658841371536255
1670350776186073900,7.751073974609375,-0.4519186019897461,-0.07950735092163086,0.1228017807006836
1670350776195999200,7.760999267578125,-0.4318852424621582,-0.14551973342895508,0.0023018717765808105
1670350776205924600,7.770924560546875,-0.22872638702392578,-0.21841859817504883,-0.07587778568267822
1670350776215850000,7.78085009765625,-0.06260395050048828,-0.19115686416625977,-0.0797235369682312
1670350776225775000,7.790775146484375,0.07111167907714844,-0.038205623626708984,0.023996710777282715
1670350776235700500,7.800700439453125,0.27098941802978516,0.009041786193847656,0.022057294845581055
1670350776245625900,7.8106259765625,0.4498739242553711,0.06347417831420898,0.07778620719909668
1670350776255551200,7.82055126953125,0.309844970703125,0.002780914306640625,0.05869251489639282
1670350776265476400,7.830476318359375,0.07344818115234375,-0.1146097183227539,0.010709106922149658
1670350776275401700,7.840401611328125,-0.08549976348876953,-0.17937469482421875,0.06729626655578613
1670350776285327000,7.8503271484375,-0.07931041717529297,-0.22175312042236328,-0.00023102760314941406
1670350776295252500,7.86025244140625,-0.03760051727294922,-0.12688016891479492,-0.0005055069923400879
1670350776305177600,7.870177490234375,-0.031887054443359375,-0.0031762123107910156,0.02245783805847168
1670350776315103000,7.88010302734375,-0.011962890625,0.03426647186279297,0.020381450653076172
1670350776325028400,7.8900283203125,0.08453845977783203,0.04739856719970703,-0.011205136775970459
1670350776334953700,7.89995361328125,-0.0028362274169921875,-0.03549337387084961,-0.07551240921020508
1670350776344878800,7.90987890625,0.02515411376953125,-0.02053356170654297,0.0037360787391662598
1670350776354804200,7.91980419921875,0.046164512634277344,-0.032038211822509766,-0.04217630624771118
1670350776364729600,7.9297294921875,0.10310649871826172,-0.036753177642822266,-0.029865264892578125
1670350776374655000,7.939655029296875,0.08119010925292969,-0.039003849029541016,-0.05874234437942505
1670350776384580000,7.949580078125,0.052364349365234375,-0.01026010513305664,-0.13121682405471802
1670350776394505500,7.95950537109375,-0.06144905090332031,0.01575946807861328,-0.06584858894348145
1670350776404430800,7.969430908203125,-0.034445762634277344,0.044054508209228516,-0.013737976551055908
1670350776414356200,7.979356201171875,-0.07156658172607422,-0.02909088134765625,-0.02693355083465576
1670350776424281300,7.98928125,-0.06583690643310547,-0.037023067474365234,-0.005956709384918213
1670350776434206700,7.999206787109375,-0.19968700408935547,-0.03928804397583008,-0.0017671585083007812
1670350776444132000,8.009132080078125,-0.24497509002685547,-0.026203632354736328,-0.0035557150840759277
1670350776454057500,8.019057373046875,-0.1560039520263672,0.0256500244140625,0.03764033317565918
1670350776463982800,8.02898291015625,-0.09236431121826172,0.016007423400878906,0.04150420427322388
1670350776473908200,8.038908203125,-0.04866313934326172,0.004253387451171875,0.04071110486984253
1670350776483833600,8.04883349609375,-0.0410308837890625,-0.0073680877685546875,0.05091261863708496
1670350776493758700,8.0587587890625,0.10561370849609375,0.013974666595458984,0.09417933225631714
1670350776503684000,8.06868408203125,0.22216033935546875,0.005859851837158203,0.04364126920700073
1670350776513609500,8.078609375,0.20559024810791016,-0.01257181167602539,0.08233928680419922
1670350776523534800,8.088534912109376,0.060013771057128906,-0.045318603515625,0.0986732542514801
1670350776533460200,8.098460205078124,-0.026375770568847656,-0.040341854095458984,0.06388813257217407
1670350776543385600,8.108385498046875,-0.07356452941894531,0.00916910171508789,0.01996976137161255
1670350776553311000,8.11831103515625,-0.1175394058227539,0.050736427307128906,-0.07218718528747559
1670350776563236400,8.128236328125,-0.1421489715576172,0.018931865692138672,-0.12988579273223877
1670350776573161700,8.13816162109375,-0.12662220001220703,-0.0024318695068359375,-0.08094733953475952
1670350776583087000,8.148087158203126,-0.08097362518310547,-0.046486854553222656,-0.09309518337249756
1670350776593012500,8.158012451171874,0.05811786651611328,-0.059144020080566406,-0.10974615812301636
1670350776602937900,8.167937744140625,0.17156124114990234,-0.03662681579589844,-0.1144716739654541
1670350776612863200,8.17786328125,0.2958030700683594,-0.013462543487548828,-0.07300388813018799
1670350776622788600,8.18778857421875,0.22090435028076172,-0.03434896469116211,-0.0012807250022888184
1670350776632714000,8.1977138671875,0.0791006088256836,-0.050455570220947266,0.03837543725967407
1670350776642639400,8.207639404296875,0.07657909393310547,-0.02904224395751953,0.030698001384735107
1670350776652564700,8.217564697265624,0.03681659698486328,-0.006150245666503906,0.005673825740814209
1670350776662490000,8.227489990234375,-0.10339927673339844,-0.009819984436035156,-0.028233349323272705
1670350776672415500,8.23741552734375,-0.17572593688964844,-0.012836456298828125,0.006083250045776367
1670350776682340900,8.2473408203125,-0.15303993225097656,0.029643535614013672,0.009274899959564209
1670350776692266200,8.257266357421875,-0.08862018585205078,0.0506596565246582,-0.00672835111618042
1670350776702191600,8.267191650390625,-0.015985488891601562,0.05015420913696289,0.05578494071960449
1670350776712116700,8.27711669921875,0.06476879119873047,0.04263019561767578,0.08551499247550964
1670350776722042000,8.2870419921875,0.06694507598876953,0.003924846649169922,0.05244946479797363
1670350776731967500,8.296967529296875,-0.0012531280517578125,-0.043985843658447266,0.044562309980392456
1670350776741892900,8.306892822265626,-0.011869430541992188,-0.0013947486877441406,-0.024014949798583984
1670350776751818200,8.316818359375,-0.01742267608642578,-0.032990455627441406,0.010541677474975586
1670350776761743600,8.32674365234375,-0.16469860076904297,-0.041997432708740234,-0.001958131790161133
1670350776771669000,8.3366689453125,-0.1500377655029297,0.02099466323852539,-0.05162620544433594
1670350776781594400,8.346594482421875,-0.18112945556640625,0.022890090942382812,-0.06798303127288818
1670350776791519700,8.356519775390625,-0.16967105865478516,0.015947341918945312,-0.06757771968841553
1670350776801445000,8.366445068359376,-0.1208639144897461,-0.0026454925537109375,-0.055486857891082764
1670350776811370500,8.37637060546875,-0.021026611328125,-0.020829200744628906,-0.03057137131690979
1670350776821295900,8.3862958984375,0.046568870544433594,-0.059839725494384766,-0.021190106868743896
1670350776831221000,8.396220947265626,0.1203460693359375,-0.05380439758300781,0.002502143383026123
1670350776841146400,8.406146484375,0.23355484008789062,-0.02065563201904297,-0.02873021364212036
1670350776851071700,8.41607177734375,0.2608776092529297,-0.022364139556884766,-0.04061579704284668
1670350776860997000,8.4259970703125,0.16841506958007812,-0.04422807693481445,-0.026427745819091797
1670350776870922200,8.435922119140624,-0.011601448059082031,-0.019315242767333984,-0.014867454767227173
1670350776880847600,8.44584765625,-0.08738994598388672,0.028825759887695312,-0.09318706393241882
1670350776890773000,8.45577294921875,-0.08216094970703125,0.039063453674316406,-0.10865578055381775
1670350776900698400,8.465698486328124,0.024048805236816406,-0.021032333374023438,0.016522645950317383
1670350776910623500,8.47562353515625,0.08145713806152344,-0.07071352005004883,0.08203211426734924
1670350776920548900,8.485548828125,-0.007828712463378906,0.01655292510986328,0.1724492609500885
1670350776930474200,8.49547412109375,-0.03430938720703125,0.1163034439086914,0.1663753092288971
1670350776940399600,8.505399658203125,-0.04858589172363281,0.0990138053894043,0.012211859226226807
1670350776950324700,8.51532470703125,-0.08648014068603516,-0.014055728912353516,-0.0992838442325592
1670350776960250000,8.52525,-0.03207683563232422,-0.07074880599975586,-0.051343560218811035
1670350776970175500,8.535175537109374,0.07116889953613281,-0.11046886444091797,-0.03703710436820984
1670350776980100900,8.545100830078125,0.12601470947265625,-0.12897443771362305,-0.012714385986328125
1670350776990026000,8.55502587890625,0.02452564239501953,-0.09537792205810547,-0.040138810873031616
1670350776999951400,8.564951416015624,0.00003910064697265625,-0.029320240020751953,-0.08197569847106934
1670350777009876700,8.574876708984375,0.00896453857421875,0.05901002883911133,-0.032712727785110474
1670350777019802000,8.584802001953125,0.07224273681640625,0.04400157928466797,0.005932331085205078
1670350777029727200,8.594727294921874,0.05031108856201172,0.037636756896972656,0.0021128952503204346
1670350777039652600,8.604652587890625,-0.0040798187255859375,0.052337646484375,0.010308712720870972
1670350777049578000,8.614577880859375,0.031975746154785156,0.04796934127807617,0.04030725359916687
1670350777059503400,8.62450341796875,-0.019781112670898438,0.0226593017578125,0.0660821795463562
1670350777069428500,8.634428466796875,-0.10855484008789062,-0.025435924530029297,-0.00013902783393859863
1670350777079353900,8.644353759765625,-0.21511077880859375,-0.01560211181640625,-0.04991355538368225
1670350777089279200,8.654279296875,-0.17452526092529297,-0.0025281906127929688,0.006153911352157593
1670350777099204600,8.66420458984375,-0.10906028747558594,0.029701709747314453,-0.01244044303894043
1670350777109129700,8.674129638671875,-0.004807472229003906,0.09229612350463867,-0.009543240070343018
1670350777119055000,8.68405517578125,0.09335041046142578,0.037906646728515625,-0.015305846929550171
1670350777128980500,8.69398046875,0.0277252197265625,-0.01853466033935547,0.03607150912284851
1670350777138905900,8.70390576171875,0.03624439239501953,-0.045744895935058594,0.09680712223052979
1670350777148831000,8.7138310546875,0.09198188781738281,-0.05636119842529297,0.05835598707199097
1670350777158756400,8.72375634765625,0.08100509643554688,-0.01053619384765625,0.03960287570953369
1670350777168681700,8.733681640625,0.06556987762451172,-0.005626678466796875,-0.037671416997909546
1670350777178607000,8.743607177734376,0.014972686767578125,0.018202781677246094,-0.014581084251403809
1670350777188532200,8.7535322265625,-0.0066375732421875,0.04651784896850586,-0.008770078420639038
1670350777198457600,8.76345751953125,-0.037220001220703125,0.05064725875854492,-0.01017749309539795
1670350777208383000,8.773383056640625,-0.09546470642089844,0.016777992248535156,0.04173099994659424
1670350777218308400,8.783308349609374,-0.10788440704345703,-0.007325172424316406,0.05214330554008484
1670350777228233500,8.7932333984375,-0.09875869750976562,-0.03824615478515625,0.04206249117851257
1670350777238158800,8.803158935546875,-0.1324939727783203,-0.028082847595214844,-0.012570232152938843
1670350777248084200,8.813084228515624,-0.027124404907226562,0.03443431854248047,-0.014787375926971436
1670350777258009600,8.823009521484375,0.16618633270263672,0.05324506759643555,-0.01408281922340393
1670350777267934700,8.832934814453125,0.3170003890991211,-0.018911361694335938,-0.03766033053398132
1670350777277860000,8.842860107421876,0.2494335174560547,-0.07708454132080078,-0.09552115201950073
1670350777287785500,8.852785400390625,0.11996650695800781,-0.0033740997314453125,-0.053834468126297
1670350777297710800,8.8627109375,0.021257400512695312,0.019120216369628906,0.022860229015350342
1670350777307636000,8.872635986328126,-0.17711544036865234,-0.01772165298461914,0.06884247064590454
1670350777317561300,8.882561279296874,-0.3517169952392578,0.027151107788085938,0.12578806281089783
1670350777327486700,8.89248681640625,-0.4017457962036133,0.023080825805664062,0.0651448667049408
1670350777337412000,8.902412109375,-0.4849381446838379,0.020688533782958984,0.0798342227935791
1670350777347337200,8.912337158203124,-0.34128856658935547,0.04970407485961914,0.09707027673721313
1670350777357262600,8.9222626953125,0.2507514953613281,-0.03354787826538086,0.27463752031326294
1670350777367188000,8.93218798828125,-0.2671966552734375,0.038341522216796875,0.056160926818847656
1670350777377113300,8.94211328125,0.33678150177001953,0.07960844039916992,-0.7508283853530884
1670350777387038500,8.95203857421875,0.7034454345703125,-0.06825637817382812,-0.3207818269729614
1670350777396963800,8.9619638671875,0.8827838897705078,-0.1074981689453125,0.01010170578956604
1670350777406889200,8.97188916015625,0.5806646347045898,-0.022125244140625,0.07844030857086182
1670350777416814600,8.981814697265625,-0.0079498291015625,-0.00950765609741211,0.2060546576976776
1670350777426740000,8.991739990234375,-0.7013955116271973,-0.1402425765991211,0.05986988544464111
1670350777436665300,9.001665283203126,-0.9330434799194336,0.014681816101074219,-0.018041938543319702
1670350777446590700,9.0115908203125,-0.7235002517700195,0.2287459373474121,0.06698307394981384
1670350777456516000,9.02151611328125,-0.3522672653198242,0.1670536994934082,0.11972519755363464
1670350777466441500,9.03144140625,-0.05359077453613281,0.07878971099853516,0.14066806435585022
1670350777476366800,9.041366943359375,0.25284481048583984,0.09180307388305664,0.04467746615409851
1670350777486292200,9.051292236328125,0.48510169982910156,0.012661457061767578,-0.08719229698181152
1670350777496217600,9.061217529296876,0.4721221923828125,-0.07655000686645508,-0.12116262316703796
1670350777506143000,9.07114306640625,0.31902217864990234,-0.10241079330444336,-0.12000560760498047
1670350777516068000,9.081068115234375,0.10094833374023438,-0.07745361328125,-0.018900364637374878
1670350777525993500,9.090993408203126,-0.10858345031738281,-0.0626826286315918,-0.018625259399414062
1670350777535918800,9.1009189453125,-0.35036659240722656,-0.07347440719604492,-0.0783001184463501
1670350777545844200,9.11084423828125,-0.5256719589233398,-0.07057857513427734,-0.00484350323677063
1670350777555769600,9.12076953125,-0.4593191146850586,-0.02058887481689453,0.09138420224189758
1670350777565695000,9.130695068359374,-0.19953632354736328,0.05372810363769531,0.08201497793197632
1670350777575620400,9.140620361328125,0.15951156616210938,0.06576108932495117,-0.013122648000717163
1670350777585545700,9.150545654296875,0.40989208221435547,0.04784584045410156,-0.027554601430892944
1670350777595471000,9.16047119140625,0.47379398345947266,0.08452033996582031,0.06827706098556519
1670350777605396500,9.170396484375,0.4626340866088867,0.10902023315429688,0.06790316104888916
1670350777615321900,9.18032177734375,0.3163337707519531,0.06987905502319336,-0.01991260051727295
1670350777625247200,9.190247314453124,0.04596424102783203,-0.0003743171691894531,-0.08492070436477661
1670350777635172600,9.200172607421875,-0.26233482360839844,-0.041287899017333984,-0.04005390405654907
1670350777645098000,9.210097900390625,-0.5405712127685547,-0.023571491241455078,0.0013366639614105225
1670350777655023400,9.2200234375,-0.6815900802612305,0.06944704055786133,0.04161873459815979
1670350777664948700,9.22994873046875,-0.9259610176086426,-0.024608612060546875,-0.17678037285804749
1670350777674874000,9.2398740234375,-0.8641443252563477,-0.07977151870727539,-0.32278668880462646
1670350777684799500,9.249799560546874,-0.46719837188720703,0.1635751724243164,-0.17966890335083008
1670350777694724900,9.259724853515625,0.11738777160644531,0.15849685668945312,-0.1503770351409912
1670350777704650200,9.269650146484375,0.36884498596191406,-0.002197265625,-0.14899054169654846
1670350777714575600,9.27957568359375,0.4054689407348633,-0.1788649559020996,-0.32264819741249084
1670350777724501000,9.2895009765625,0.2891702651977539,-0.3256082534790039,-0.4830862581729889
1670350777734426000,9.299426025390625,0.1629657745361328,-0.40856218338012695,-0.4855971336364746
1670350777744351500,9.3093515625,0.2083425521850586,-0.4145498275756836,-0.49814844131469727
1670350777754276900,9.31927685546875,0.2133340835571289,-0.310366153717041,-0.48789289593696594
1670350777764202200,9.3292021484375,0.20012378692626953,-0.20894289016723633,-0.37536680698394775
1670350777774127600,9.339127685546876,-0.013166427612304688,-0.0545964241027832,-0.30074286460876465
1670350777784053000,9.349052978515624,0.0074710845947265625,0.055860042572021484,-0.16863179206848145
1670350777793978400,9.358978271484375,0.3887319564819336,0.1661849021911621,0.2409157156944275
1670350777803903700,9.36890380859375,0.895604133605957,0.230926513671875,0.8275472521781921
1670350777813829000,9.3788291015625,0.7635021209716797,0.10354042053222656,0.8894714117050171
1670350777823754500,9.38875439453125,-0.2043323516845703,0.019806385040283203,0.18168696761131287
1670350777833680000,9.398679931640626,-0.5004291534423828,0.006266117095947266,-0.004727661609649658
1670350777843605200,9.408605224609374,-0.2913217544555664,-0.02331399917602539,0.22049251198768616
1670350777853530600,9.418530517578125,-0.159912109375,0.036782264709472656,0.3338347375392914
1670350777863456000,9.4284560546875,-0.0762176513671875,0.061861515045166016,0.21716274321079254
1670350777873381400,9.43838134765625,-0.09333038330078125,0.11095571517944336,0.144795224070549
1670350777883306800,9.448306640625,-0.1414937973022461,0.12746953964233398,0.11940549314022064
1670350777893232000,9.458232177734375,-0.23640060424804688,0.07853078842163086,0.06402680277824402
1670350777903157200,9.4681572265625,-0.1063241958618164,0.14178895950317383,0.18883375823497772
1670350777913082600,9.47808251953125,-0.17868423461914062,0.16642522811889648,0.09551721811294556
1670350777923008000,9.488008056640625,-0.11061859130859375,0.1408834457397461,0.08089151978492737
1670350777932933400,9.497933349609376,-0.10738754272460938,0.101776123046875,0.07293766736984253
1670350777942858500,9.5078583984375,-0.10274124145507812,-0.02716207504272461,-0.03427872061729431
1670350777952784000,9.517783935546875,-0.20029258728027344,-0.08665180206298828,-0.08488711714744568
1670350777962709200,9.527709228515626,-0.3632049560546875,-0.051497459411621094,-0.09602335095405579
1670350777972634600,9.537634521484375,-0.47307729721069336,0.04460620880126953,-0.10040362179279327
1670350777982559700,9.547559814453125,-0.29730224609375,0.12244653701782227,-0.036548465490341187
1670350777992485000,9.557485107421876,0.14652538299560547,0.10707330703735352,0.03779533505439758
1670350778002410500,9.567410400390624,0.5703639984130859,0.0588078498840332,0.04418918490409851
1670350778012335900,9.5773359375,0.8176727294921875,0.021359920501708984,0.06417736411094666
1670350778022261000,9.587260986328126,0.9272994995117188,-0.0087738037109375,0.08812606334686279
1670350778032186400,9.597186279296874,0.6374120712280273,-0.08544731140136719,0.08338028192520142
1670350778042111700,9.60711181640625,0.19808483123779297,-0.1417222023010254,0.18202951550483704
1670350778052037000,9.617037109375,-0.24371719360351562,-0.20108699798583984,0.23400071263313293
1670350778061962200,9.626962158203124,-0.37160301208496094,-0.1747274398803711,0.22472307085990906
1670350778071887600,9.6368876953125,-0.1571197509765625,-0.08337068557739258,0.23637786507606506
1670350778081813000,9.64681298828125,-0.2793464660644531,0.07915019989013672,0.22780030965805054
1670350778091738400,9.65673828125,-0.30942344665527344,0.11896038055419922,0.10694241523742676
1670350778101663500,9.66666357421875,-0.12099456787109375,-0.02808094024658203,0.06550255417823792
1670350778111588900,9.6765888671875,0.04178810119628906,-0.010502338409423828,-0.006001919507980347
1670350778121514200,9.68651416015625,0.10517120361328125,0.10899734497070312,-0.1578390896320343
1670350778131439600,9.696439697265625,0.3856649398803711,0.15915346145629883,-0.04827696084976196
1670350778141364700,9.70636474609375,0.4064760208129883,0.1086878776550293,0.2827249765396118
1670350778151290000,9.7162900390625,0.3264923095703125,-0.0022144317626953125,0.43853676319122314
1670350778161215500,9.726215576171874,0.10064315795898438,0.011443614959716797,0.3703119158744812
1670350778171140900,9.736140869140625,-0.36462974548339844,-0.004718303680419922,-0.004071027040481567
1670350778181066000,9.74606591796875,-0.534980297088623,-0.05859708786010742,-0.4008999764919281
1670350778190991400,9.755991455078124,-0.42674970626831055,-0.04657125473022461,-0.4513411223888397
1670350778200916700,9.765916748046875,-0.4299488067626953,0.0922689437866211,-0.20746953785419464
1670350778210842000,9.775842041015625,-0.3723764419555664,0.18503618240356445,-0.0163479745388031
1670350778220767200,9.785767333984374,-0.24968910217285156,0.15602540969848633,0.1988030970096588
1670350778230692600,9.795692626953125,-0.08874130249023438,0.11054468154907227,0.4252873957157135
1670350778240618000,9.805617919921875,0.26813316345214844,0.04084157943725586,0.521670937538147
1670350778250543400,9.81554345703125,0.37940025329589844,0.05364036560058594,0.37805089354515076
1670350778260468500,9.825468505859375,0.3544454574584961,0.045064449310302734,0.23197847604751587
1670350778270393900,9.835393798828125,0.2961416244506836,0.009490013122558594,0.3388780951499939
1670350778280319200,9.8453193359375,0.020906448364257812,0.09171819686889648,0.5184282660484314
1670350778290244600,9.85524462890625,-0.3196697235107422,0.3023867607116699,0.4452384114265442
1670350778300169700,9.865169677734375,-0.5196456909179688,0.47000741958618164,0.2963298261165619
1670350778310095000,9.87509521484375,-0.5411543846130371,0.5126500129699707,0.24419346451759338
1670350778320020500,9.8850205078125,-0.37244129180908203,0.37723779678344727,0.219038724899292
1670350778329945900,9.89494580078125,-0.11477947235107422,0.11719131469726562,0.07711811363697052
1670350778339871200,9.904871337890626,0.11818122863769531,-0.18202543258666992,-0.13595512509346008
1670350778349796600,9.914796630859374,0.3720989227294922,-0.3839397430419922,-0.32747912406921387
1670350778359722000,9.924721923828125,0.4560537338256836,-0.39871740341186523,-0.40089333057403564
1670350778369647400,9.9346474609375,0.5471744537353516,-0.36376142501831055,-0.37450075149536133
1670350778379572700,9.94457275390625,0.527923583984375,-0.2923412322998047,-0.3674805462360382
1670350778389498000,9.954498046875,0.37440013885498047,-0.21128082275390625,-0.339185506105423
1670350778399423500,9.964423583984376,0.23221206665039062,-0.0919795036315918,-0.19214245676994324
1670350778409348900,9.974348876953124,0.0890645980834961,0.027745723724365234,-0.07927903532981873
1670350778419274200,9.984274169921875,0.13805389404296875,0.030194759368896484,-0.043387867510318756
1670350778429199600,9.99419970703125,0.21102428436279297,-0.10378408432006836,-0.12102953344583511
1670350778439125000,10.004125,0.17991065979003906,-0.2085723876953125,-0.23193009197711945
1670350778449050400,10.01405029296875,0.06467819213867188,-0.20349788665771484,-0.38797634840011597
1670350778458975500,10.0239755859375,-0.07002735137939453,-0.19106245040893555,-0.4663700759410858
1670350778468900900,10.03390087890625,-0.22647953033447266,-0.23691034317016602,-0.4577915668487549
1670350778478826200,10.043826171875,-0.2726554870605469,-0.30666446685791016,-0.40692731738090515
1670350778488751600,10.053751708984375,-0.19596481323242188,-0.34159088134765625,-0.382360577583313
1670350778498677000,10.063677001953126,-0.13494205474853516,-0.26717090606689453,-0.3849170207977295
1670350778508602400,10.073602294921875,0.012261390686035156,-0.16584444046020508,-0.23221881687641144
1670350778518527700,10.08352783203125,0.22385215759277344,-0.0889286994934082,-0.0116204172372818
1670350778528453000,10.093453125,0.28438758850097656,0.039467811584472656,0.03148351609706879
1670350778538378500,10.10337841796875,0.1275768280029297,0.07558965682983398,0.01276463270187378
1670350778548304000,10.113303955078125,0.0745077133178711,0.04778146743774414,0.06892376393079758
1670350778558229200,10.123229248046876,-0.01728057861328125,0.007883548736572266,0.012379676103591919
1670350778568154600,10.133154541015625,-0.07853889465332031,-0.013809680938720703,0.03244289755821228
1670350778578080000,10.143080078125,-0.12906360626220703,0.08213663101196289,0.07749103009700775
1670350778588005400,10.15300537109375,-0.3486747741699219,0.096954345703125,0.03619354963302612
1670350778597930800,10.1629306640625,-0.39629650115966797,0.08304977416992188,0.0063996464014053345
1670350778607856000,10.172856201171875,-0.2698526382446289,0.009902000427246094,-0.09842942655086517
1670350778617781500,10.182781494140626,-0.27347564697265625,0.024078369140625,-0.024424970149993896
1670350778627707000,10.192706787109374,-0.2050457000732422,0.06568336486816406,0.043835610151290894
1670350778637632300,10.20263232421875,-0.06277656555175781,0.07423734664916992,0.07173190265893936
1670350778647557600,10.2125576171875,0.12027740478515625,0.10245895385742188,0.10075706988573074
1670350778657483000,10.22248291015625,0.2475128173828125,0.042973995208740234,0.030817076563835144
1670350778667408400,10.232408447265625,0.19712448120117188,-0.08104896545410156,-0.08183500170707703
1670350778677333500,10.24233349609375,0.0677957534790039,-0.1210165023803711,-0.07068488001823425
1670350778687259000,10.2522587890625,-0.08112716674804688,-0.05808401107788086,-0.009817689657211304
1670350778697184300,10.262184326171875,-0.14844226837158203,0.045495033264160156,0.17563121020793915
1670350778707109600,10.272109619140625,-0.1591625213623047,0.06439828872680664,0.15751317143440247
1670350778717035000,10.282034912109374,-0.12773704528808594,0.0200958251953125,0.06136350333690643
1670350778726960400,10.29196044921875,-0.028308868408203125,0.04205799102783203,-0.0001268535852432251
1670350778736885800,10.3018857421875,0.025091171264648438,0.04177379608154297,-0.09248799085617065
1670350778746811100,10.31181103515625,0.04517555236816406,0.021698951721191406,-0.08288629353046417
1670350778756736500,10.321736572265625,0.2068328857421875,-0.010783195495605469,0.03939470648765564
1670350778766662000,10.331661865234375,0.3666200637817383,-0.05110788345336914,0.05330957472324371
1670350778776587300,10.341587158203126,0.3505115509033203,-0.09488821029663086,-0.09238941967487335
1670350778786512600,10.3515126953125,0.21810054779052734,-0.050470829010009766,-0.03195692598819733
1670350778796438000,10.36143798828125,-0.026874542236328125,-0.014918804168701172,-0.0028490275144577026
1670350778806363400,10.37136328125,-0.26350879669189453,-0.007424831390380859,0.007694274187088013
1670350778816288800,10.381288818359375,-0.33033084869384766,0.021073341369628906,-0.03217349946498871
1670350778826214100,10.391214111328125,-0.30576419830322266,0.06821393966674805,0.03613704442977905
1670350778836139500,10.401139404296876,-0.24768543243408203,0.04627513885498047,0.1140529066324234
1670350778846065000,10.41106494140625,-0.1536703109741211,0.04722452163696289,0.09500941634178162
1670350778855990300,10.420990234375,-0.05889320373535156,0.08820819854736328,0.08413060009479523
1670350778865915600,10.43091552734375,-0.059767723083496094,0.06230020523071289,0.0849020779132843
1670350778875841000,10.440841064453124,0.026597976684570312,0.008481502532958984,0.04484725743532181
1670350778885766400,10.450766357421875,0.21066761016845703,-0.05186319351196289,-0.041985444724559784
1670350778895691800,10.46069189453125,0.33806896209716797,-0.0886240005493164,-0.048604972660541534
1670350778905617000,10.470616943359374,0.37946128845214844,-0.06737279891967773,0.049215033650398254
1670350778915542300,10.480542236328125,0.4144439697265625,-0.058091163635253906,0.08280810713768005
1670350778925467600,10.490467529296875,0.2519559860229492,-0.05524873733520508,0.08911074697971344
1670350778935393000,10.50039306640625,0.0549774169921875,-0.027330398559570312,-0.0009825080633163452
1670350778945318400,10.510318359375,-0.22596454620361328,0.03563499450683594,0.01699233055114746
1670350778955243800,10.520243896484375,-0.5033202171325684,0.12294483184814453,-0.01362929493188858
1670350778965169200,10.530169189453124,-0.7852411270141602,0.16754150390625,0.009016215801239014
1670350778975094500,10.540094482421875,-0.7754640579223633,0.1710834503173828,-0.06821458041667938
1670350778985020000,10.55002001953125,-0.5276498794555664,0.15902471542358398,-0.08991123735904694
1670350778994945300,10.5599453125,-0.18519210815429688,0.10730123519897461,-0.08859045058488846
1670350779004870700,10.56987060546875,0.03266620635986328,0.11797285079956055,-0.033154264092445374
1670350779014796000,10.579796142578125,0.13500308990478516,0.09358835220336914,-0.008963890373706818
1670350779024721400,10.589721435546876,0.31594181060791016,-0.0319514274597168,0.03257385641336441
1670350779034646800,10.599646728515625,0.4344367980957031,-0.2085723876953125,0.027328886091709137
1670350779044572200,10.609572265625,0.5013341903686523,-0.22177743911743164,0.0282679945230484
1670350779054497300,10.619497314453126,0.48084545135498047,-0.14196443557739258,0.055550701916217804
1670350779064422700,10.629422607421875,0.28313350677490234,-0.07762527465820312,0.009736776351928711
1670350779074348000,10.63934814453125,-0.14585208892822266,-0.044205665588378906,-0.03193733096122742
1670350779084273400,10.6492734375,-0.7382206916809082,0.0655984878540039,-0.07463689148426056
1670350779094198500,10.659198486328124,-1.132883071899414,0.1478123664855957,-0.19204208254814148
1670350779104124000,10.6691240234375,-1.1507701873779297,0.1439681053161621,-0.17531555891036987
1670350779114049300,10.67904931640625,-0.708777904510498,0.10042428970336914,-0.18199816346168518
1670350779123974700,10.688974609375,0.1431417465209961,0.039533138275146484,-0.18983277678489685
1670350779133899800,10.698899658203125,1.040635108947754,0.0024271011352539062,0.04053467512130737
1670350779143825200,10.7088251953125,1.3760128021240234,0.021373748779296875,0.351659893989563
1670350779153750500,10.71875048828125,1.3460416793823242,-0.06760406494140625,0.18449372053146362
1670350779163676000,10.728676025390625,1.2891435623168945,-0.3581118583679199,-0.14050932228565216
1670350779173601000,10.73860107421875,1.1061840057373047,-0.42652130126953125,0.01477329432964325
1670350779183526400,10.7485263671875,0.7707538604736328,-0.30431127548217773,0.23637913167476654
1670350779193451800,10.75845166015625,0.21844863891601562,-0.17196369171142578,0.1962452232837677
1670350779203377200,10.768377197265625,-0.35651683807373047,-0.10322380065917969,0.046778902411460876
1670350779213302300,10.77830224609375,-0.6061859130859375,-0.03891468048095703,0.00377693772315979
1670350779223227600,10.7882275390625,-0.7165827751159668,0.09032440185546875,0.14210481941699982
1670350779233153000,10.798153076171875,-0.8404130935668945,0.18861865997314453,0.16334134340286255
1670350779243078400,10.808078369140626,-0.928706169128418,0.3024468421936035,0.12481634318828583
1670350779253003500,10.81800341796875,-0.9073581695556641,0.27473878860473633,-0.004269123077392578
1670350779262929000,10.827928955078125,-0.674379825592041,0.21372413635253906,-0.12008655071258545
1670350779272854300,10.837854248046876,-0.16766643524169922,0.18689250946044922,0.0023915767669677734
1670350779282779600,10.847779541015624,0.22882366180419922,0.0655508041381836,0.02708485722541809
1670350779292704800,10.857704833984375,0.18983840942382812,-0.003467082977294922,-0.12092286348342896
1670350779302630100,10.867630126953125,0.05976295471191406,0.035715579986572266,-0.05567893385887146
1670350779312555500,10.877555419921874,-0.00798797607421875,0.05820131301879883,0.0008567869663238525
1670350779322481000,10.88748095703125,-0.09198284149169922,0.03473663330078125,-0.035724252462387085
1670350779332406000,10.897406005859375,-0.1687602996826172,0.00922250747680664,-0.009725034236907959
1670350779342331400,10.907331298828124,-0.14798450469970703,-0.0009241104125976562,-0.0008037090301513672
1670350779352256800,10.9172568359375,-0.14927959442138672,-0.010277271270751953,-0.026469320058822632
1670350779362182100,10.92718212890625,-0.062010765075683594,0.006412982940673828,0.03350827097892761
1670350779372107500,10.937107421875,-0.06599617004394531,0.01459646224975586,0.11122970283031464
1670350779382033000,10.947032958984375,-0.23749446868896484,0.15469026565551758,0.06367135047912598
1670350779391958300,10.956958251953125,0.1488361358642578,0.07583808898925781,-0.04314878582954407
1670350779401883600,10.966883544921876,0.6287612915039062,-0.023344993591308594,0.04376430809497833
1670350779411809000,10.97680908203125,0.6818370819091797,-0.027369022369384766,0.056427374482154846
1670350779421734400,10.986734375,0.4685811996459961,-0.07008838653564453,-0.17763566970825195
1670350779431659800,10.99665966796875,0.12495803833007812,-0.1318192481994629,-0.14212659001350403
1670350779441585200,11.006585205078125,0.06488323211669922,-0.16761016845703125,-0.14214739203453064
1670350779451510500,11.016510498046875,0.058890342712402344,-0.18238067626953125,0.022633105516433716
1670350779461435600,11.026435546875,-0.17555809020996094,-0.1531233787536621,0.04511573910713196
1670350779471361000,11.036361083984374,-0.46387672424316406,-0.11697053909301758,0.0014247894287109375
1670350779481286400,11.046286376953125,-0.6399550437927246,-0.025850296020507812,0.00617101788520813
1670350779491211800,11.056211669921876,-0.5048260688781738,0.06345987319946289,-0.06983694434165955
1670350779501137200,11.06613720703125,0.0075931549072265625,0.053427696228027344,-0.03272548317909241
1670350779511062500,11.0760625,0.644108772277832,-0.007518768310546875,-0.00016322731971740723
1670350779520988000,11.08598779296875,0.8387880325317383,-0.008131980895996094,0.052197009325027466
1670350779530913300,11.095913330078124,0.45887184143066406,0.008493900299072266,0.0860295295715332
1670350779540838700,11.105838623046875,0.24835777282714844,0.0790095329284668,-0.10046133399009705
1670350779550764000,11.115763916015625,0.30446815490722656,-0.036893367767333984,-0.12607792019844055
1670350779560689400,11.125689453125,-0.08114147186279297,-0.055407047271728516,-0.03881135582923889
1670350779570614800,11.13561474609375,-0.26199913024902344,0.11575651168823242,0.22460415959358215
1670350779580540200,11.1455400390625,0.04913330078125,-0.01967763900756836,0.08447790145874023
1670350779590465500,11.155465576171874,-0.019437789916992188,0.016715526580810547,0.021951615810394287
1670350779600391000,11.165390869140625,-0.28392601013183594,0.03918123245239258,0.013883203268051147
1670350779610316300,11.17531640625,-0.40128374099731445,0.10364770889282227,0.12185761332511902
1670350779620241700,11.18524169921875,-0.5968194007873535,0.20264816284179688,0.15290194749832153
1670350779630167000,11.1951669921875,-0.7212209701538086,0.15391302108764648,0.042187392711639404
1670350779640092400,11.205092529296875,-0.2838554382324219,0.0004086494445800781,-0.13448777794837952
1670350779650017800,11.215017822265626,0.46428775787353516,-0.11791372299194336,0.004019111394882202
1670350779659943200,11.224943115234375,0.8146753311157227,-0.013722419738769531,0.23697370290756226
1670350779669868500,11.23486865234375,0.7186374664306641,0.09728384017944336,0.21433910727500916
1670350779679793700,11.244793701171876,0.30004215240478516,0.08096027374267578,0.20765002071857452
1670350779689719000,11.254718994140624,0.4058494567871094,-0.008318424224853516,0.3082536458969116
1670350779699644400,11.26464453125,-0.0036993026733398438,-0.02794790267944336,-0.3323465883731842
1670350779709569800,11.27456982421875,0.22664928436279297,-0.026877403259277344,-0.6281030178070068
1670350779719495200,11.2844951171875,0.6262273788452148,-0.10010099411010742,-0.16639450192451477
1670350779729420500,11.294420654296875,0.7194719314575195,-0.18206310272216797,0.09498029947280884
1670350779739346000,11.304345947265626,0.31131553649902344,-0.2269601821899414,0.2045954018831253
1670350779749271300,11.314271240234374,-0.2982196807861328,-0.15561580657958984,0.26563337445259094
1670350779759196700,11.32419677734375,-0.7891840934753418,-0.07961130142211914,0.21668708324432373
1670350779769122000,11.3341220703125,-0.8169775009155273,-0.05934429168701172,0.2137013077735901
1670350779779047400,11.34404736328125,-0.438291072845459,-0.13226985931396484,0.11398850381374359
1670350779788972800,11.353972900390625,0.0014362335205078125,-0.14372777938842773,0.11012451350688934
1670350779798898200,11.363898193359375,0.4902639389038086,-0.005702018737792969,0.10223649442195892
1670350779808823600,11.373823486328124,0.6380405426025391,0.05303049087524414,-0.07652565836906433
1670350779818749000,11.3837490234375,0.19709014892578125,0.06431818008422852,-0.147354394197464
1670350779828674300,11.39367431640625,-0.19150352478027344,0.06792926788330078,-0.23899829387664795
1670350779838599700,11.403599609375,-0.32296085357666016,0.12316417694091797,-0.1618606150150299
1670350779848525000,11.413525146484375,-0.3982052803039551,0.11325883865356445,-0.26527097821235657
1670350779858450400,11.423450439453125,-0.44362640380859375,0.18454790115356445,-0.16322365403175354
1670350779868375800,11.433375732421876,-0.36458683013916016,0.21877336502075195,-0.13552439212799072
1670350779878301200,11.44330126953125,-0.41472291946411133,0.15465831756591797,-0.09657663106918335
1670350779888226600,11.4532265625,-0.2621288299560547,0.07161664962768555,-0.13370361924171448
1670350779898152000,11.46315185546875,-0.055670738220214844,0.053900718688964844,-0.12542018294334412
1670350779908077000,11.4730771484375,0.10818195343017578,0.09395742416381836,-0.08022096753120422
1670350779918002400,11.48300244140625,1.21600341796875,0.16797876358032227,0.19733427464962006
1670350779927927800,11.492927734375,-0.060044288635253906,0.14825963973999023,0.2698630690574646
1670350779937853200,11.502853271484375,-0.18469715118408203,-0.1404409408569336,-0.3940010964870453
1670350779947778600,11.512778564453125,0.15400028228759766,-0.1085057258605957,-0.15127718448638916
1670350779957704000,11.522703857421876,0.36960697174072266,0.014101028442382812,0.2451375126838684
1670350779967629300,11.53262939453125,0.14116668701171875,0.024044513702392578,0.08321654796600342
1670350779977554700,11.5425546875,0.07143020629882812,-0.1280050277709961,-0.06534364819526672
1670350779987480000,11.55247998046875,0.39354419708251953,-0.16059160232543945,0.19475167989730835
1670350779997405400,11.562405517578124,0.6051778793334961,-0.1917262077331543,0.25153762102127075
1670350780007330800,11.572330810546875,0.10579395294189453,-0.16939210891723633,0.02862676978111267
1670350780017256200,11.582256103515626,-0.46421384811401367,-0.08434247970581055,-0.07042005658149719
1670350780027181600,11.592181640625,-0.6542725563049316,-0.0225830078125,-0.02198818325996399
1670350780037107000,11.60210693359375,-0.5413594245910645,0.03049755096435547,-0.02724461257457733
1670350780047032300,11.6120322265625,-0.27043914794921875,0.09873294830322266,0.0020496994256973267
1670350780056957700,11.621957763671874,-0.03548240661621094,0.18133163452148438,-0.016574278473854065
1670350780066883000,11.631883056640625,0.11385822296142578,0.19541454315185547,-0.0781329870223999
1670350780076808400,11.641808349609375,0.0457000732421875,0.18778562545776367,-0.023381248116493225
1670350780086733800,11.65173388671875,-0.2795886993408203,0.23321819305419922,-0.0035026073455810547
1670350780096659200,11.6616591796875,-0.5697660446166992,0.19458246231079102,-0.03929762542247772
1670350780106584600,11.67158447265625,-0.48720264434814453,0.10055112838745117,-0.06047208607196808
1670350780116510000,11.681510009765624,0.07430839538574219,-0.10722923278808594,-0.041782766580581665
1670350780126435000,11.69143505859375,0.3625659942626953,-0.17152786254882812,0.019359558820724487
1670350780136360400,11.7013603515625,0.21725749969482422,-0.06403684616088867,0.04213838279247284
1670350780146285800,11.711285888671876,0.0951385498046875,-0.029657840728759766,-0.020692899823188782
1670350780156211200,11.721211181640625,-0.048831939697265625,0.008216381072998047,0.13824686408042908
1670350780166136600,11.731136474609375,-0.16228866577148438,0.04616737365722656,-0.2029237002134323
1670350780176062000,11.74106201171875,0.2627983093261719,-0.15478277206420898,-0.3416168689727783
1670350780185987300,11.7509873046875,0.5642642974853516,-0.34343481063842773,-0.15420375764369965
1670350780195912700,11.76091259765625,0.6272678375244141,-0.1421041488647461,-0.1112125813961029
1670350780205838000,11.770838134765626,0.5927658081054688,-0.0643167495727539,-0.10342362523078918
1670350780215763500,11.780763427734374,0.3330078125,-0.18602514266967773,-0.043470486998558044
1670350780225688800,11.790688720703125,-0.2586555480957031,-0.08520174026489258,0.142264261841774
1670350780235614200,11.8006142578125,-0.8273849487304688,0.1662740707397461,0.2281189113855362
1670350780245539600,11.81053955078125,-1.0450553894042969,0.27572202682495117,0.1559692770242691
1670350780255465000,11.82046484375,-1.0262370109558105,0.25551319122314453,0.0844847559928894
1670350780265390300,11.830390380859376,-0.8006134033203125,0.2183976173400879,0.030894160270690918
1670350780275315700,11.840315673828124,-0.5505180358886719,0.2164621353149414,-0.03228306770324707
1670350780285241000,11.850240966796875,0.14589500427246094,0.01970386505126953,-0.2354390174150467
1670350780295166500,11.86016650390625,1.1385746002197266,-0.3058614730834961,-0.3595691919326782
1670350780305091800,11.870091796875,1.4886016845703125,-0.3963890075683594,-0.09071624279022217
1670350780315017200,11.880017333984375,1.1648015975952148,-0.2943120002746582,0.10111699998378754
1670350780324942600,11.889942626953125,0.5273466110229492,-0.12665939331054688,0.1107284426689148
1670350780334868000,11.899867919921874,-0.06158447265625,0.026183605194091797,0.0066983699798583984
1670350780344793000,11.90979296875,-0.2041778564453125,0.06136894226074219,-0.056625694036483765
1670350780354718500,11.919718505859375,-0.377166748046875,0.10051679611206055,0.2018623650074005
1670350780364643800,11.929643798828126,-0.35912322998046875,0.08632135391235352,0.24840189516544342
1670350780374569200,11.9395693359375,0.24454879760742188,0.13886690139770508,0.15456953644752502
1670350780384494600,11.94949462890625,0.24855327606201172,0.1903061866760254,0.23498046398162842
1670350780394420000,11.959419921875,0.20646381378173828,0.08382844924926758,0.11888647079467773
1670350780404345300,11.969345458984375,0.26722049713134766,0.038922786712646484,-0.027335435152053833
1670350780414270700,11.979270751953125,0.45552825927734375,0.041823387145996094,0.020074427127838135
1670350780424196000,11.989196044921876,0.6009273529052734,-0.06798267364501953,0.1755131483078003
1670350780434121500,11.99912158203125,0.4730358123779297,-0.12784481048583984,0.1367826759815216
1670350780444046800,12.009046875,0.16475772857666016,-0.12720251083374023,-0.0552130788564682
1670350780453972200,12.01897216796875,-0.2708263397216797,-0.10898208618164062,-0.2157004028558731
1670350780463897600,12.028897705078125,-0.5054688453674316,-0.07627725601196289,-0.27565741539001465
1670350780473823000,12.038822998046875,-0.4410581588745117,-0.03926229476928711,-0.23674997687339783
1670350780483748400,12.048748291015626,-0.31486988067626953,0.03823566436767578,-0.04611949622631073
1670350780493673700,12.058673828125,-0.3775033950805664,0.10601329803466797,0.10800577700138092
1670350780503599000,12.06859912109375,-0.38640451431274414,0.11849069595336914,0.10172523558139801
1670350780513524500,12.0785244140625,-0.1948995590209961,0.12034368515014648,0.10386702418327332
1670350780523449900,12.088449951171874,0.039516448974609375,0.06028604507446289,0.017143800854682922
1670350780533375200,12.098375244140625,0.8418703079223633,0.0088958740234375,0.0891246646642685
1670350780543300600,12.108300537109375,0.34035491943359375,0.4047970771789551,0.5816530585289001
1670350780553226000,12.11822607421875,-0.21327590942382812,0.2804889678955078,-0.3188258111476898
1670350780563151400,12.1281513671875,-0.7152962684631348,-0.07239484786987305,-0.2387489527463913
1670350780573076500,12.138076416015625,-0.45383787155151367,-0.2234187126159668,-0.08940866589546204
1670350780583001900,12.148001953125,-0.5117454528808594,-0.0923771858215332,-0.09313145279884338
1670350780592927200,12.15792724609375,-0.6077880859375,-0.02977132797241211,-0.15104123950004578
1670350780602852600,12.1678525390625,-0.30672407150268555,-0.036286354064941406,-0.07050858438014984
1670350780612778000,12.177778076171874,0.057112693786621094,0.051294803619384766,0.23225630819797516
1670350780622703400,12.187703369140625,0.879176139831543,-0.06415224075317383,0.3867126703262329
1670350780632628700,12.197628662109375,1.2298040390014648,-0.10840654373168945,0.43248164653778076
1670350780642554000,12.20755419921875,0.5039758682250977,0.07694721221923828,0.29465654492378235
1670350780652479500,12.2174794921875,-0.31188201904296875,0.10274934768676758,0.1507451832294464
1670350780662404900,12.22740478515625,-0.5252971649169922,-0.04228925704956055,-0.06154151260852814
1670350780672330200,12.237330322265626,-0.4506816864013672,-0.09700632095336914,-0.1924666464328766
1670350780682255600,12.247255615234375,-0.37105894088745117,-0.10547351837158203,-0.29319193959236145
1670350780692181000,12.257180908203125,-0.3439908027648926,-0.0535120964050293,-0.3134540319442749
1670350780702106400,12.2671064453125,-0.0851430892944336,-0.049411773681640625,-0.35181790590286255
1670350780712031700,12.27703173828125,0.2494964599609375,-0.13623857498168945,-0.25791656970977783
1670350780721957000,12.28695703125,0.17223262786865234,-0.15984344482421875,-0.2043168991804123
1670350780731882500,12.296882568359376,0.10350227355957031,-0.11604642868041992,-0.3495176434516907
1670350780741807900,12.306807861328124,0.17765045166015625,-0.06040620803833008,-0.19163265824317932
1670350780751733200,12.316733154296875,0.38863086700439453,-0.06068706512451172,-0.019955500960350037
1670350780761658600,12.32665869140625,0.5289735794067383,-0.098114013671875,0.02539820969104767
1670350780771584000,12.336583984375,0.31591796875,-0.09144020080566406,-0.03375309705734253
1670350780781509400,12.34650927734375,0.15560626983642578,-0.07411432266235352,-0.04829336702823639
1670350780791434500,12.3564345703125,0.17888545989990234,-0.0765833854675293,0.08525483310222626
1670350780801360000,12.36635986328125,0.1088399887084961,-0.06686544418334961,0.07477329671382904
1670350780811285200,12.37628515625,-0.15805530548095703,0.05130481719970703,0.029892750084400177
1670350780821210600,12.386210693359375,-0.2544584274291992,0.11523771286010742,0.0613522008061409
1670350780831136000,12.396135986328124,-0.22350597381591797,0.12862682342529297,0.10172808915376663
