time,seconds_elapsed,z,y,x
1670350768887868700,0.45286865234375,-0.004260932095348835,0.02876129187643528,-0.03302222490310669
1670350768897868800,0.462868896484375,-0.0063913981430232525,0.02450035884976387,-0.03621792420744896
1670350768907987200,0.4729873046875,-0.007456631399691105,0.01917419396340847,-0.03834838792681694
1670350768917987300,0.4829873046875,-0.0053261648863554,0.0213046595454216,-0.04687025398015976
1670350768928095000,0.493094970703125,0,0.0159784946590662,-0.0532616525888443
1670350768938095000,0.50309521484375,0.0010652330238372087,0.009587096981704235,-0.05539211630821228
1670350768948192800,0.51319287109375,0.0021304660476744175,0.0106523297727108,-0.05539211630821228
1670350768958377000,0.523376953125,-0.0010652330238372087,0.0106523297727108,-0.05432688444852829
1670350768968377000,0.533377197265625,-0.0063913981430232525,0.00852186419069767,-0.05219641700387001
1670350768978454300,0.543454345703125,-0.01171756349503994,0.01384802907705307,-0.05006595328450203
1670350768988599600,0.553599609375,-0.0106523297727108,0.02556559257209301,-0.05432688444852829
1670350768998599700,0.563599609375,-0.01704372838139534,0.009587096981704235,-0.07030537724494934
1670350769008659200,0.5736591796875,-0.01917419396340847,0.0010652330238372087,-0.08095771074295044
1670350769018770200,0.583770263671875,-0.01491326279938221,0.012782796286046505,-0.09161003679037094
1670350769028923400,0.59392333984375,-0.0031956990715116262,0.0319569893181324,-0.09693620353937149
1670350769039108000,0.604108154296875,0.0053261648863554,0.03728315606713295,-0.09161003679037094
1670350769049108200,0.614108154296875,0,0.03515268862247467,-0.07989247888326645
1670350769059132200,0.624132080078125,-0.01810896210372448,0.02982652559876442,-0.07030537724494934
1670350769069175600,0.634175537109375,-0.03089175745844841,0.01917419396340847,-0.06497921794652939
1670350769079232800,0.644232666015625,-0.03941362351179123,0.02343512699007988,-0.06604444980621338
1670350769089297700,0.654297607421875,-0.04154408723115921,0.02663082629442215,-0.07669677585363388
1670350769099364600,0.664364501953125,-0.03941362351179123,0.02236989326775074,-0.08308817446231842
1670350769109338600,0.674338623046875,-0.04047885537147522,0.0053261648863554,-0.08308817446231842
1670350769119263700,0.684263671875,-0.0426093190908432,-0.01491326279938221,-0.07030537724494934
1670350769129189000,0.694189208984375,-0.04473978653550148,-0.02343512699007988,-0.05432688444852829
1670350769139114200,0.7041142578125,-0.04367455467581749,-0.01384802907705307,-0.04047885537147522
1670350769149039600,0.71403955078125,-0.0319569893181324,0.0159784946590662,-0.02769605815410614
1670350769158965000,0.723965087890625,-0.0159784946590662,0.04154408723115921,-0.0159784946590662
1670350769168890000,0.73389013671875,-0.0063913981430232525,0.04367455467581749,-0.0031956990715116262
1670350769178815500,0.7438154296875,-0.0021304660476744175,0.0319569893181324,0.01384802907705307
1670350769188740600,0.75374072265625,-0.0021304660476744175,0.0213046595454216,0.02556559257209301
1670350769198666000,0.763666015625,0.0010652330238372087,0.01491326279938221,0.02556559257209301
1670350769208591000,0.773591064453125,0.0010652330238372087,0.0053261648863554,0.01704372838139534
1670350769218516500,0.7835166015625,-0.0021304660476744175,0.0010652330238372087,0.00852186419069767
1670350769228441600,0.793441650390625,-0.0053261648863554,0.0063913981430232525,0
1670350769238367000,0.803366943359375,-0.004260932095348835,0.0106523297727108,-0.0063913981430232525
1670350769248292400,0.813292236328125,-0.0031956990715116262,0.01491326279938221,-0.004260932095348835
1670350769258217500,0.823217529296875,-0.0031956990715116262,0.01171756349503994,0.0021304660476744175
1670350769268142800,0.833142822265625,-0.0010652330238372087,0.007456631399691105,0.009587096981704235
1670350769278068000,0.84306787109375,0.0010652330238372087,0.0053261648863554,0.009587096981704235
1670350769287993300,0.852993408203125,0.0031956990715116262,0.02023942768573761,0.0010652330238372087
1670350769297918500,0.86291845703125,0.0063913981430232525,0.05219641700387001,-0.01491326279938221
1670350769307843800,0.87284375,0.01171756349503994,0.06604444980621338,-0.03089175745844841
1670350769317769000,0.88276904296875,0.012782796286046505,0.06604444980621338,-0.04473978653550148
1670350769327694300,0.8926943359375,0.009587096981704235,0.06604444980621338,-0.0532616525888443
1670350769337619500,0.902619384765625,0.012782796286046505,0.07669677585363388,-0.06178351491689682
1670350769347544800,0.912544921875,0.02769605815410614,0.07669677585363388,-0.07350108027458191
1670350769357470200,0.92247021484375,0.03834838792681694,0.06817491352558136,-0.08308817446231842
1670350769367395300,0.932395263671875,0.04580501839518547,0.06284874677658081,-0.07989247888326645
1670350769377320700,0.94232080078125,0.04580501839518547,0.05752258375287056,-0.07350108027458191
1670350769387245800,0.952245849609375,0.04793548583984375,0.05965305119752884,-0.07030537724494934
1670350769397171200,0.962171142578125,0.05539211630821228,0.06924014538526535,-0.07669677585363388
1670350769407096300,0.972096435546875,0.06178351491689682,0.07563154399394989,-0.09054480493068695
1670350769417021700,0.982021728515625,0.06604444980621338,0.07882724702358246,-0.09800143539905548
1670350769426946800,0.99194677734375,0.06924014538526535,0.07882724702358246,-0.09693620353937149
1670350769436872200,1.0018720703125,0.06924014538526535,0.06817491352558136,-0.09693620353937149
1670350769446797300,1.01179736328125,0.05965305119752884,0.06284874677658081,-0.09693620353937149
1670350769456722700,1.02172265625,0.05858781561255455,0.07882724702358246,-0.0958709716796875
1670350769466648000,1.03164794921875,0.07563154399394989,0.09161003679037094,-0.0958709716796875
1670350769476573200,1.0415732421875,0.10226237028837204,0.09800143539905548,-0.10013190656900406
1670350769486498600,1.05149853515625,0.11504516750574112,0.09800143539905548,-0.10971900075674057
1670350769496423700,1.061423583984375,0.10226237028837204,0.10971900075674057,-0.11291470378637314
1670350769506349000,1.07134912109375,0.06817491352558136,0.14274121820926666,-0.09054480493068695
1670350769516274200,1.081274169921875,0.02450035884976387,0.15445879101753235,-0.06178351491689682
1670350769526199600,1.091199462890625,-0.012782796286046505,0.11291470378637314,-0.03302222490310669
1670350769536124700,1.101124755859375,-0.03515268862247467,0.07137060910463333,-0.0021304660476744175
1670350769546050000,1.111050048828125,-0.06284874677658081,0.02982652559876442,0.01491326279938221
1670350769555975400,1.120975341796875,-0.09800143539905548,0.01917419396340847,0.02876129187643528
1670350769565900500,1.130900634765625,-0.12463226169347763,0.02876129187643528,0.05006595328450203
1670350769575826000,1.140825927734375,-0.13634982705116272,0.01491326279938221,0.0639139786362648
1670350769585751000,1.1507509765625,-0.14487169682979584,0.004260932095348835,0.05858781561255455
1670350769595676400,1.160676513671875,-0.16617634892463684,0.01491326279938221,0.03515268862247467
1670350769605601500,1.1706015625,-0.18322007358074188,0.00852186419069767,0.02343512699007988
1670350769615527000,1.18052685546875,-0.18854624032974243,-0.02236989326775074,0.012782796286046505
1670350769625452000,1.1904521484375,-0.18322007358074188,-0.03408745676279068,-0.0063913981430232525
1670350769635377400,1.20037744140625,-0.16404588520526886,-0.007456631399691105,-0.02556559257209301
1670350769645302500,1.210302490234375,-0.13208889961242676,0.04047885537147522,-0.03515268862247467
1670350769655228000,1.220227783203125,-0.10758853703737259,0.08415340632200241,-0.02236989326775074
1670350769665153300,1.2301533203125,-0.09800143539905548,0.07776200771331787,0.0106523297727108
1670350769675078400,1.240078369140625,-0.09906667470932007,0.0426093190908432,0.05539211630821228
1670350769685003800,1.250003662109375,-0.10119713842868805,0.02769605815410614,0.09374050796031952
1670350769694929000,1.259928955078125,-0.09480573982000351,0.0319569893181324,0.10226237028837204
1670350769704854300,1.269854248046875,-0.07882724702358246,0.02876129187643528,0.07882724702358246
1670350769714779400,1.279779296875,-0.05645735189318657,0.02343512699007988,0.0426093190908432
1670350769724704800,1.289704833984375,-0.04367455467581749,0.02982652559876442,0.0106523297727108
1670350769734630000,1.2996298828125,-0.03408745676279068,0.02556559257209301,-0.007456631399691105
1670350769744555300,1.30955517578125,-0.02769605815410614,0.0021304660476744175,-0.0031956990715116262
1670350769754480400,1.31948046875,-0.0213046595454216,-0.007456631399691105,0.007456631399691105
1670350769764405800,1.32940576171875,-0.009587096981704235,-0.00852186419069767,0.007456631399691105
1670350769774331100,1.3393310546875,-0.0021304660476744175,-0.0053261648863554,-0.004260932095348835
1670350769784256300,1.34925634765625,-0.0010652330238372087,0.0063913981430232525,-0.01171756349503994
1670350769794181600,1.359181640625,-0.0063913981430232525,0.02343512699007988,-0.01491326279938221
1670350769804106800,1.369106689453125,-0.01384802907705307,0.02343512699007988,-0.01704372838139534
1670350769814032100,1.3790322265625,-0.02343512699007988,0.0106523297727108,-0.012782796286046505
1670350769823957200,1.388957275390625,-0.0319569893181324,0.0021304660476744175,0
1670350769833882600,1.398882568359375,-0.03941362351179123,0.0010652330238372087,0.01810896210372448
1670350769843807700,1.408807861328125,-0.04687025398015976,0.009587096981704235,0.02876129187643528
1670350769853733000,1.418733154296875,-0.04900071769952774,0.02450035884976387,0.0319569893181324
1670350769863658500,1.428658447265625,-0.05113118514418602,0.0426093190908432,0.02876129187643528
1670350769873583600,1.43858349609375,-0.05219641700387001,0.03621792420744896,0.02876129187643528
1670350769883509000,1.448509033203125,-0.06071828305721283,0.007456631399691105,0.03302222490310669
1670350769893434000,1.45843408203125,-0.07243584841489792,-0.0213046595454216,0.03834838792681694
1670350769903359500,1.468359375,-0.06604444980621338,-0.01491326279938221,0.04154408723115921
1670350769913284600,1.47828466796875,-0.04473978653550148,0.0106523297727108,0.02769605815410614
1670350769923210000,1.4882099609375,-0.02663082629442215,0.02876129187643528,0.0063913981430232525
1670350769933135000,1.498135009765625,-0.0159784946590662,0.0426093190908432,-0.009587096981704235
1670350769943060500,1.508060546875,-0.012782796286046505,0.04793548583984375,-0.012782796286046505
1670350769952985600,1.517985595703125,-0.0159784946590662,0.03834838792681694,-0.01171756349503994
1670350769962911000,1.527910888671875,-0.0213046595454216,0.02343512699007988,-0.007456631399691105
1670350769972836400,1.53783642578125,-0.02343512699007988,0.00852186419069767,-0.0106523297727108
1670350769982761500,1.547761474609375,-0.02556559257209301,-0.0063913981430232525,-0.02023942768573761
1670350769992686800,1.557686767578125,-0.02663082629442215,-0.0213046595454216,-0.02663082629442215
1670350770002612000,1.567612060546875,-0.02982652559876442,-0.02556559257209301,-0.02663082629442215
1670350770012537300,1.577537353515625,-0.03515268862247467,-0.01704372838139534,-0.0213046595454216
1670350770022462500,1.58746240234375,-0.03834838792681694,-0.004260932095348835,-0.012782796286046505
1670350770032387800,1.597387939453125,-0.03941362351179123,0,-0.0021304660476744175
1670350770042313000,1.60731298828125,-0.03621792420744896,0.0010652330238372087,0.0106523297727108
1670350770052238300,1.61723828125,-0.03515268862247467,0.0031956990715116262,0.01810896210372448
1670350770062163500,1.62716357421875,-0.03408745676279068,0.007456631399691105,0.01917419396340847
1670350770072088800,1.6370888671875,-0.03302222490310669,0.01171756349503994,0.01171756349503994
1670350770082014200,1.64701416015625,-0.03089175745844841,0.009587096981704235,0.0010652330238372087
1670350770091939600,1.656939697265625,-0.02663082629442215,0.0159784946590662,-0.0021304660476744175
1670350770101864700,1.66686474609375,-0.02982652559876442,0.01384802907705307,-0.00852186419069767
1670350770111790000,1.6767900390625,-0.03728315606713295,0.0063913981430232525,-0.0213046595454216
1670350770121715500,1.686715576171875,-0.03621792420744896,0,-0.03089175745844841
1670350770131640800,1.696640869140625,-0.0319569893181324,-0.004260932095348835,-0.03728315606713295
1670350770141566000,1.70656591796875,-0.03302222490310669,0,-0.03621792420744896
1670350770151491300,1.7164912109375,-0.03515268862247467,0.009587096981704235,-0.03408745676279068
1670350770161416700,1.726416748046875,-0.03408745676279068,0.0213046595454216,-0.02876129187643528
1670350770171342000,1.736342041015625,-0.03515268862247467,0.03089175745844841,-0.02769605815410614
1670350770181267500,1.746267333984375,-0.03728315606713295,0.0319569893181324,-0.0319569893181324
1670350770191192600,1.756192626953125,-0.04047885537147522,0.01491326279938221,-0.03834838792681694
1670350770201118000,1.766117919921875,-0.04367455467581749,0.004260932095348835,-0.04580501839518547
1670350770211043300,1.776043212890625,-0.04793548583984375,0.0106523297727108,-0.05539211630821228
1670350770220968700,1.78596875,-0.04793548583984375,0.01491326279938221,-0.05752258375287056
1670350770230893800,1.795893798828125,-0.0426093190908432,0.01171756349503994,-0.05219641700387001
1670350770240819200,1.805819091796875,-0.04047885537147522,0.0031956990715116262,-0.04580501839518547
1670350770250744600,1.81574462890625,-0.03834838792681694,0.0031956990715116262,-0.03621792420744896
1670350770260670000,1.825669921875,-0.03834838792681694,0.0053261648863554,-0.02343512699007988
1670350770270595000,1.835594970703125,-0.03941362351179123,-0.0053261648863554,-0.0159784946590662
1670350770280520400,1.8455205078125,-0.03621792420744896,-0.02556559257209301,-0.01704372838139534
1670350770290445800,1.85544580078125,-0.0319569893181324,-0.02556559257209301,-0.01917419396340847
1670350770300371200,1.86537109375,-0.02769605815410614,-0.01171756349503994,-0.02343512699007988
1670350770310296300,1.87529638671875,-0.02343512699007988,-0.0021304660476744175,-0.02769605815410614
1670350770320221700,1.8852216796875,-0.0159784946590662,-0.009587096981704235,-0.03408745676279068
1670350770330147000,1.89514697265625,-0.01384802907705307,-0.01491326279938221,-0.03089175745844841
1670350770340072400,1.905072509765625,-0.01917419396340847,-0.01917419396340847,-0.02236989326775074
1670350770349997600,1.91499755859375,-0.02982652559876442,-0.03621792420744896,-0.01704372838139534
1670350770359923000,1.9249228515625,-0.03941362351179123,-0.04580501839518547,-0.009587096981704235
1670350770369848300,1.934848388671875,-0.0426093190908432,-0.04580501839518547,-0.0053261648863554
1670350770379773700,1.944773681640625,-0.03621792420744896,-0.03941362351179123,-0.0106523297727108
1670350770389698800,1.95469873046875,-0.02769605815410614,-0.02982652559876442,-0.02343512699007988
1670350770399624200,1.964624267578125,-0.02023942768573761,-0.02023942768573761,-0.03515268862247467
1670350770409549600,1.974549560546875,-0.01810896210372448,-0.02982652559876442,-0.04047885537147522
1670350770419475000,1.984474853515625,-0.01704372838139534,-0.04580501839518547,-0.04154408723115921
1670350770429400000,1.994400146484375,-0.02023942768573761,-0.05752258375287056,-0.03408745676279068
1670350770439325400,2.004325439453125,-0.02556559257209301,-0.06817491352558136,-0.01810896210372448
1670350770449250600,2.01425048828125,-0.02769605815410614,-0.07030537724494934,0
1670350770459176000,2.024176025390625,-0.02769605815410614,-0.06284874677658081,0.0159784946590662
1670350770469101000,2.03410107421875,-0.03089175745844841,-0.0639139786362648,0.0213046595454216
1670350770479026400,2.0440263671875,-0.03089175745844841,-0.06071828305721283,0.0213046595454216
1670350770488951600,2.05395166015625,-0.02769605815410614,-0.05219641700387001,0.01810896210372448
1670350770498877000,2.063876953125,-0.0213046595454216,-0.04793548583984375,0.0106523297727108
1670350770508802000,2.073802001953125,-0.0159784946590662,-0.04367455467581749,0.0031956990715116262
1670350770518727400,2.0837275390625,-0.012782796286046505,-0.04687025398015976,-0.0010652330238372087
1670350770528652800,2.09365283203125,-0.012782796286046505,-0.05219641700387001,-0.0031956990715116262
1670350770538578000,2.103577880859375,-0.01810896210372448,-0.0532616525888443,-0.004260932095348835
1670350770548503300,2.11350341796875,-0.0213046595454216,-0.04367455467581749,-0.004260932095348835
1670350770558428400,2.123428466796875,-0.02236989326775074,-0.02663082629442215,0.0031956990715116262
1670350770568353800,2.133353759765625,-0.02343512699007988,-0.01917419396340847,0.00852186419069767
1670350770578279000,2.14327880859375,-0.01917419396340847,-0.0159784946590662,0.009587096981704235
1670350770588204300,2.153204345703125,-0.01384802907705307,-0.0010652330238372087,0.0063913981430232525
1670350770598129400,2.16312939453125,-0.01171756349503994,0.01704372838139534,0.007456631399691105
1670350770608054800,2.1730546875,-0.00852186419069767,0.03515268862247467,0.01384802907705307
1670350770617980200,2.182980224609375,-0.0063913981430232525,0.04473978653550148,0.02023942768573761
1670350770627905300,2.1929052734375,-0.004260932095348835,0.03941362351179123,0.02663082629442215
1670350770637830700,2.20283056640625,0,0.03302222490310669,0.0319569893181324
1670350770647755800,2.212755859375,0,0.02556559257209301,0.02876129187643528
1670350770657681200,2.22268115234375,-0.0053261648863554,0.01810896210372448,0.01704372838139534
1670350770667606300,2.232606201171875,-0.0063913981430232525,0.0063913981430232525,0.00852186419069767
1670350770677531600,2.24253173828125,-0.007456631399691105,0,0.0031956990715116262
1670350770687456800,2.252456787109375,-0.012782796286046505,-0.0063913981430232525,-0.0021304660476744175
1670350770697382100,2.262382080078125,-0.01384802907705307,-0.009587096981704235,0.0010652330238372087
1670350770707307300,2.272307373046875,-0.012782796286046505,-0.01171756349503994,0.0063913981430232525
1670350770717232600,2.282232666015625,-0.01171756349503994,-0.0053261648863554,0.0031956990715116262
1670350770727158000,2.292157958984375,-0.0063913981430232525,0.00852186419069767,-0.0031956990715116262
1670350770737083100,2.302083251953125,0.0010652330238372087,0.02769605815410614,-0.0021304660476744175
1670350770747008500,2.312008544921875,0.0031956990715116262,0.03089175745844841,0
1670350770756933600,2.32193359375,0.0031956990715116262,0.02876129187643528,0.0031956990715116262
1670350770766859000,2.33185888671875,0.0031956990715116262,0.03728315606713295,0.009587096981704235
1670350770776784100,2.3417841796875,-0.004260932095348835,0.03621792420744896,0.01171756349503994
1670350770786709500,2.35170947265625,-0.01171756349503994,0.02236989326775074,0.01384802907705307
1670350770796634600,2.361634521484375,-0.02023942768573761,0.0031956990715116262,0.01704372838139534
1670350770806560000,2.37156005859375,-0.03302222490310669,-0.06710968166589737,0.04367455467581749
1670350770816485000,2.381485107421875,-0.06924014538526535,-0.2034595012664795,0.12250179797410965
1670350770826410500,2.391410400390625,-0.08734910935163498,-0.14274121820926666,0.07669677585363388
1670350770836335900,2.4013359375,-0.04900071769952774,-0.03834838792681694,0.0159784946590662
1670350770846261000,2.411260986328125,-0.0031956990715116262,0.04687025398015976,-0.01810896210372448
1670350770856186400,2.421186279296875,0.02982652559876442,0.09693620353937149,-0.03515268862247467
1670350770866111500,2.431111572265625,0.04687025398015976,0.17789392173290253,-0.04154408723115921
1670350770876036900,2.441036865234375,0.04367455467581749,0.17363297939300537,-0.02343512699007988
1670350770885962000,2.4509619140625,0.02556559257209301,0.08202294260263443,-0.0031956990715116262
1670350770895887400,2.460887451171875,0.007456631399691105,-0.00852186419069767,-0.0053261648863554
1670350770905812500,2.4708125,-0.0031956990715116262,-0.03728315606713295,-0.01917419396340847
1670350770915737900,2.48073779296875,-0.0106523297727108,-0.01384802907705307,-0.0213046595454216
1670350770925663200,2.490663330078125,-0.01704372838139534,0.012782796286046505,-0.01384802907705307
1670350770935588400,2.50058837890625,-0.01917419396340847,0.03302222490310669,0.0021304660476744175
1670350770945513700,2.510513671875,-0.01171756349503994,0.05965305119752884,0.0213046595454216
1670350770955438800,2.52043896484375,-0.0031956990715116262,0.09800143539905548,0.0319569893181324
1670350770965364200,2.5303642578125,0.00852186419069767,0.12143656611442566,0.03621792420744896
1670350770975289300,2.540289306640625,0.01384802907705307,0.1384802907705307,0.03515268862247467
1670350770985214700,2.550214599609375,0.007456631399691105,0.13315412402153015,0.02663082629442215
1670350770995139800,2.560139892578125,-0.0031956990715116262,0.11184946447610855,0.01917419396340847
1670350771005065200,2.570065185546875,-0.00852186419069767,0.10758853703737259,0.01384802907705307
1670350771014990300,2.579990234375,-0.02450035884976387,0.14593692123889923,0.01171756349503994
1670350771024915700,2.589915771484375,-0.03621792420744896,0.18322007358074188,0.012782796286046505
1670350771034841000,2.599841064453125,-0.02236989326775074,0.22156846523284912,0.02450035884976387
1670350771044766200,2.60976611328125,0.00852186419069767,0.22689463198184967,0.02663082629442215
1670350771054691600,2.619691650390625,0.0159784946590662,0.17469821870326996,-0.0063913981430232525
1670350771064617000,2.629616943359375,0,0.1491326242685318,-0.0031956990715116262
1670350771074542300,2.639542236328125,-0.02769605815410614,0.14274121820926666,0.0106523297727108
1670350771084467500,2.649467529296875,-0.04580501839518547,0.11930610239505768,0.007456631399691105
1670350771094392800,2.659392822265625,-0.03302222490310669,0.11078423261642456,0.0031956990715116262
1670350771104318200,2.669318115234375,-0.01491326279938221,0.13421936333179474,-0.01917419396340847
1670350771114243600,2.67924365234375,-0.0159784946590662,0.15339355170726776,-0.05645735189318657
1670350771124168700,2.689168701171875,-0.02876129187643528,0.1597849577665329,-0.09161003679037094
1670350771134094000,2.699093994140625,-0.04367455467581749,0.1480673849582672,-0.10971900075674057
1670350771144019500,2.70901953125,-0.05645735189318657,0.09906667470932007,-0.11291470378637314
1670350771153944800,2.71894482421875,-0.06604444980621338,0.03728315606713295,-0.10545806586742401
1670350771163870000,2.728869873046875,-0.06604444980621338,-0.01810896210372448,-0.08308817446231842
1670350771173795300,2.73879541015625,-0.05645735189318657,-0.03834838792681694,-0.05432688444852829
1670350771183720700,2.748720703125,-0.0426093190908432,-0.04793548583984375,-0.04367455467581749
1670350771193646000,2.75864599609375,-0.02982652559876442,-0.05006595328450203,-0.03728315606713295
1670350771203571200,2.7685712890625,-0.02023942768573761,-0.04367455467581749,-0.0319569893181324
1670350771213496600,2.77849658203125,-0.01384802907705307,-0.04047885537147522,-0.02450035884976387
1670350771223422000,2.788421875,-0.0063913981430232525,-0.0532616525888443,-0.01810896210372448
1670350771233347300,2.798347412109375,-0.0010652330238372087,-0.07882724702358246,-0.009587096981704235
1670350771243272400,2.8082724609375,0.004260932095348835,-0.10758853703737259,0
1670350771253197800,2.81819775390625,0,-0.1171756312251091,0.01171756349503994
1670350771263123200,2.828123291015625,-0.0031956990715116262,-0.11930610239505768,0.02450035884976387
1670350771273048600,2.838048583984375,-0.00852186419069767,-0.11078423261642456,0.04154408723115921
1670350771282973700,2.8479736328125,-0.02236989326775074,-0.10971900075674057,0.05752258375287056
1670350771292899000,2.857899169921875,-0.02876129187643528,-0.11078423261642456,0.0639139786362648
1670350771302824400,2.867824462890625,-0.02982652559876442,-0.10865376889705658,0.06071828305721283
1670350771312749800,2.877749755859375,-0.02876129187643528,-0.11078423261642456,0.05113118514418602
1670350771322675000,2.887675048828125,-0.02236989326775074,-0.10545806586742401,0.03515268862247467
1670350771332600300,2.897600341796875,-0.0106523297727108,-0.0958709716796875,0.009587096981704235
1670350771342525700,2.907525634765625,0.0010652330238372087,-0.07882724702358246,-0.01491326279938221
1670350771352451000,2.917451171875,0,-0.05432688444852829,-0.02556559257209301
1670350771362376200,2.927376220703125,0,-0.05113118514418602,-0.03089175745844841
1670350771372301600,2.937301513671875,0.0053261648863554,-0.06604444980621338,-0.03834838792681694
1670350771382227000,2.94722705078125,0.0106523297727108,-0.06924014538526535,-0.04367455467581749
1670350771392152300,2.95715234375,0.01384802907705307,-0.05858781561255455,-0.04367455467581749
1670350771402077400,2.967077392578125,0.012782796286046505,-0.0319569893181324,-0.03089175745844841
1670350771412002800,2.9770029296875,-0.0021304660476744175,-0.0159784946590662,-0.007456631399691105
1670350771421928200,2.98692822265625,-0.012782796286046505,-0.02663082629442215,0.01810896210372448
1670350771431853600,2.996853515625,-0.0159784946590662,-0.04154408723115921,0.03302222490310669
1670350771441778700,3.00677880859375,-0.01810896210372448,-0.04367455467581749,0.03515268862247467
1670350771451704000,3.0167041015625,-0.0213046595454216,-0.03302222490310669,0.02450035884976387
1670350771461629400,3.02662939453125,-0.02023942768573761,-0.02663082629442215,0.0063913981430232525
1670350771471554800,3.036554931640625,-0.01171756349503994,-0.03089175745844841,-0.01810896210372448
1670350771481480000,3.04647998046875,-0.0021304660476744175,-0.04367455467581749,-0.04473978653550148
1670350771491405300,3.0564052734375,0,-0.0426093190908432,-0.05539211630821228
1670350771501330700,3.06633056640625,-0.0063913981430232525,-0.0319569893181324,-0.05113118514418602
1670350771511255800,3.076255859375,-0.0159784946590662,-0.03728315606713295,-0.03941362351179123
1670350771521181200,3.08618115234375,-0.03621792420744896,-0.05006595328450203,-0.02023942768573761
1670350771531106600,3.0961064453125,-0.05965305119752884,-0.05645735189318657,0
1670350771541031700,3.10603173828125,-0.07989247888326645,-0.05432688444852829,0.012782796286046505
1670350771550957000,3.11595703125,-0.0852186381816864,-0.04793548583984375,0.02876129187643528
1670350771560882200,3.125882080078125,-0.08095771074295044,-0.09374050796031952,0.03302222490310669
1670350771570807600,3.1358076171875,-0.09480573982000351,-0.1587197184562683,0.03515268862247467
1670350771580732700,3.145732666015625,-0.0958709716796875,-0.19919857382774353,0.0426093190908432
1670350771590658000,3.155657958984375,-0.06710968166589737,-0.20772044360637665,0.03941362351179123
1670350771600583200,3.165583251953125,-0.02450035884976387,-0.16617634892463684,0.03621792420744896
1670350771610508500,3.175508544921875,0.01810896210372448,-0.13528458774089813,0.02769605815410614
1670350771620433700,3.18543359375,0.04793548583984375,-0.14061075448989868,0.02023942768573761
1670350771630359000,3.195359130859375,0.05752258375287056,-0.16724158823490143,0.01384802907705307
1670350771640284400,3.205284423828125,0.05113118514418602,-0.21091613173484802,0.004260932095348835
1670350771650209500,3.21520947265625,0.04367455467581749,-0.26098209619522095,-0.009587096981704235
1670350771660135000,3.225135009765625,0.03834838792681694,-0.30465665459632874,-0.02556559257209301
1670350771670060000,3.23506005859375,0.03728315606713295,-0.32596129179000854,-0.0319569893181324
1670350771679985400,3.2449853515625,0.04154408723115921,-0.3387441039085388,-0.02769605815410614
1670350771689910500,3.25491064453125,0.06071828305721283,-0.36963585019111633,-0.02023942768573761
1670350771699836000,3.2648359375,0.07776200771331787,-0.41863659024238586,-0.004260932095348835
1670350771709761000,3.274760986328125,0.06924014538526535,-0.4495283365249634,0.01810896210372448
1670350771719686400,3.284686279296875,0.04367455467581749,-0.4473978579044342,0.04900071769952774
1670350771729611800,3.29461181640625,0.007456631399691105,-0.4239627420902252,0.07669677585363388
1670350771739537000,3.304536865234375,-0.02769605815410614,-0.38028818368911743,0.09267527610063553
1670350771749462300,3.314462158203125,-0.04154408723115921,-0.31424373388290405,0.10013190656900406
1670350771759387400,3.324387451171875,-0.03408745676279068,-0.24713405966758728,0.08628387749195099
1670350771769312800,3.334312744140625,-0.01491326279938221,-0.17576344311237335,0.05752258375287056
1670350771779238000,3.34423779296875,0.01171756349503994,-0.08415340632200241,0.03515268862247467
1670350771789163300,3.354163330078125,0.02982652559876442,-0.02236989326775074,0.0106523297727108
1670350771799088400,3.36408837890625,0.04047885537147522,-0.0053261648863554,-0.0053261648863554
1670350771809013800,3.374013671875,0.0319569893181324,-0.02556559257209301,-0.01491326279938221
1670350771818939000,3.38393896484375,0.012782796286046505,-0.04580501839518547,-0.01491326279938221
1670350771828864300,3.3938642578125,0,-0.0426093190908432,-0.007456631399691105
1670350771838789600,3.40378955078125,-0.004260932095348835,-0.02663082629442215,-0.0010652330238372087
1670350771848714800,3.41371484375,-0.0031956990715116262,-0.0063913981430232525,0.009587096981704235
1670350771858640100,3.42364013671875,-0.0063913981430232525,0.00852186419069767,0.02982652559876442
1670350771868565200,3.433565185546875,-0.009587096981704235,0.004260932095348835,0.04367455467581749
1670350771878490600,3.44349072265625,-0.00852186419069767,-0.0021304660476744175,0.04473978653550148
1670350771888415700,3.453415771484375,-0.00852186419069767,-0.05539211630821228,0.03302222490310669
1670350771898341000,3.463341064453125,-0.01384802907705307,-0.04793548583984375,0.00852186419069767
1670350771908266200,3.473266357421875,-0.0063913981430232525,-0.0031956990715116262,-0.02769605815410614
1670350771918191600,3.483191650390625,0.007456631399691105,0.01810896210372448,-0.04473978653550148
1670350771928116700,3.49311669921875,0.01171756349503994,0.0319569893181324,-0.02236989326775074
1670350771938042000,3.5030419921875,-0.00852186419069767,0.04580501839518547,0.01917419396340847
1670350771947967500,3.512967529296875,-0.03089175745844841,0.08308817446231842,0.05432688444852829
1670350771957892600,3.522892578125,-0.02450035884976387,0.10439283400774002,0.05858781561255455
1670350771967818000,3.53281787109375,0.0031956990715116262,0.10226237028837204,0.04367455467581749
1670350771977743400,3.542743408203125,0.0213046595454216,0.10013190656900406,0.03515268862247467
1670350771987668500,3.55266845703125,0.02663082629442215,0.09374050796031952,0.03302222490310669
1670350771997593900,3.56259375,0.0213046595454216,0.08308817446231842,0.03834838792681694
1670350772007519200,3.572519287109375,0.00852186419069767,0.06710968166589737,0.04047885537147522
1670350772017444600,3.582444580078125,0,0.05432688444852829,0.03515268862247467
1670350772027369700,3.59236962890625,0.0063913981430232525,0.0426093190908432,0.02023942768573761
1670350772037295000,3.602295166015625,0.01704372838139534,0.04047885537147522,0.0031956990715116262
1670350772047220500,3.612220458984375,0.01810896210372448,0.05219641700387001,-0.0031956990715116262
1670350772057145900,3.622145751953125,0.009587096981704235,0.06178351491689682,0.0031956990715116262
1670350772067071000,3.632071044921875,0.004260932095348835,0.05965305119752884,0.0106523297727108
1670350772076996400,3.641996337890625,0,0.05752258375287056,0.01917419396340847
1670350772086921700,3.651921630859375,-0.01491326279938221,0.06497921794652939,0.02876129187643528
1670350772096847000,3.66184716796875,-0.05965305119752884,0.12037133425474167,0.05113118514418602
1670350772106772200,3.671772216796875,-0.09800143539905548,0.15232832729816437,0.05858781561255455
1670350772116697600,3.681697509765625,-0.11611039936542511,0.14061075448989868,0.03515268862247467
1670350772126623000,3.691623046875,-0.10758853703737259,0.12250179797410965,-0.0053261648863554
1670350772136548400,3.70154833984375,-0.09267527610063553,0.14061075448989868,-0.04154408723115921
1670350772146473500,3.711473388671875,-0.10119713842868805,0.17789392173290253,-0.05965305119752884
1670350772156398800,3.72139892578125,-0.13528458774089813,0.24180789291858673,-0.04367455467581749
1670350772166324200,3.73132421875,-0.16298064589500427,0.2663082480430603,-0.03089175745844841
1670350772176249600,3.74124951171875,-0.1693720519542694,0.2652430236339569,-0.02982652559876442
1670350772186174700,3.7511748046875,-0.16511112451553345,0.33448317646980286,-0.01704372838139534
1670350772196100000,3.76110009765625,-0.16191542148590088,0.40159285068511963,-0.01171756349503994
1670350772206025500,3.771025390625,-0.15658925473690033,0.4143756330013275,-0.01384802907705307
1670350772215950800,3.780950927734375,-0.14061075448989868,0.38667958974838257,-0.01491326279938221
1670350772225876000,3.7908759765625,-0.1278279572725296,0.3536573648452759,-0.01917419396340847
1670350772235801300,3.80080126953125,-0.1267627328634262,0.299330472946167,-0.06497921794652939
1670350772245726700,3.810726806640625,-0.12356702983379364,0.30252617597579956,-0.14167599380016327
1670350772255652000,3.820652099609375,-0.11504516750574112,0.3419398069381714,-0.2023942768573761
1670350772265577200,3.8305771484375,-0.10332760214805603,0.34513550996780396,-0.2354165017604828
1670350772275502600,3.840502685546875,-0.09161003679037094,0.30465665459632874,-0.2247641682624817
1670350772285428000,3.850427978515625,-0.10439283400774002,0.256721168756485,-0.1608501821756363
1670350772295353300,3.860353271484375,-0.1384802907705307,0.19493764638900757,-0.06817491352558136
1670350772305278500,3.870278564453125,-0.18641577661037445,0.19919857382774353,0.04687025398015976
1670350772315203800,3.880203857421875,-0.30359140038490295,-0.0319569893181324,0.13634982705116272
1670350772325129200,3.890129150390625,-0.32276561856269836,0.18322007358074188,0.29400432109832764
1670350772335054600,3.9000546875,-0.24287313222885132,0.06817491352558136,0.3813534080982208
1670350772344979700,3.909979736328125,-0.16404588520526886,-0.05539211630821228,0.3430050313472748
1670350772354905000,3.919905029296875,-0.12995843589305878,0.0159784946590662,0.2876129150390625
1670350772364830500,3.92983056640625,-0.11611039936542511,0.06817491352558136,0.22050324082374573
1670350772374755800,3.939755859375,-0.10439283400774002,0.06071828305721283,0.14487169682979584
1670350772384681000,3.949680908203125,-0.10439283400774002,0.04047885537147522,0.07989247888326645
1670350772394606300,3.9596064453125,-0.12143656611442566,0.05219641700387001,0.05432688444852829
1670350772404531700,3.96953173828125,-0.13102366030216217,0.08628387749195099,0.05965305119752884
1670350772414457000,3.97945703125,-0.1267627328634262,0.08202294260263443,0.0639139786362648
1670350772424382200,3.98938232421875,-0.12037133425474167,0.07243584841489792,0.06284874677658081
1670350772434307600,3.9993076171875,-0.10758853703737259,0.09693620353937149,0.07030537724494934
1670350772444233000,4.00923291015625,-0.09054480493068695,0.18854624032974243,0.09480573982000351
1670350772454158300,4.019158447265625,-0.07669677585363388,0.23648172616958618,0.10758853703737259
1670350772464083500,4.02908349609375,-0.07137060910463333,0.1800243854522705,0.09800143539905548
1670350772474008800,4.0390087890625,-0.08202294260263443,0.16830681264400482,0.09800143539905548
1670350772483934200,4.048934326171875,-0.09374050796031952,0.20026381313800812,0.10758853703737259
1670350772493859600,4.058859619140625,-0.09267527610063553,0.18748101592063904,0.10545806586742401
1670350772503784700,4.06878466796875,-0.08095771074295044,0.15445879101753235,0.09693620353937149
1670350772513710000,4.0787099609375,-0.06497921794652939,0.1480673849582672,0.08947957307100296
1670350772523635500,4.088635498046875,-0.04900071769952774,0.16830681264400482,0.08095771074295044
1670350772533560800,4.098560791015625,-0.02343512699007988,0.191741943359375,0.06710968166589737
1670350772543486000,4.10848583984375,0.0053261648863554,0.1928071826696396,0.04900071769952774
1670350772553411300,4.118411376953125,0.02236989326775074,0.17682868242263794,0.0426093190908432
1670350772563336700,4.128336669921875,0.0063913981430232525,0.15658925473690033,0.05006595328450203
1670350772573262000,4.138261962890625,-0.04367455467581749,0.14380645751953125,0.07882724702358246
1670350772583187500,4.1481875,-0.10865376889705658,0.10865376889705658,0.11930610239505768
1670350772593112600,4.158112548828125,-0.17682868242263794,0.05113118514418602,0.16298064589500427
1670350772603038000,4.168037841796875,-0.22795987129211426,0.02343512699007988,0.20026381313800812
1670350772612963300,4.17796337890625,-0.24287313222885132,0.02876129187643528,0.2130466103553772
1670350772622888700,4.187888671875,-0.19813334941864014,0.0426093190908432,0.19919857382774353
1670350772632813800,4.197813720703125,-0.1065233051776886,0.07776200771331787,0.16830681264400482
1670350772642739200,4.2077392578125,-0.0106523297727108,0.1395455300807953,0.13102366030216217
1670350772652664300,4.217664306640625,0.12250179797410965,0.21091613173484802,0.08947957307100296
1670350772662589700,4.227589599609375,0.2226337045431137,0.22689463198184967,0.05432688444852829
1670350772672514800,4.237514892578125,0.2748301327228546,0.2535254657268524,0.05965305119752884
1670350772682440200,4.247440185546875,0.29187384247779846,0.2577863931655884,0.09800143539905548
1670350772692365300,4.257365234375,0.29506954550743103,0.21730753779411316,0.1374150663614273
1670350772702290700,4.267290771484375,0.299330472946167,0.1810896098613739,0.16830681264400482
1670350772712215800,4.2772158203125,0.29400432109832764,0.17789392173290253,0.19387240707874298
1670350772722141200,4.28714111328125,0.2780258059501648,0.17682868242263794,0.2034595012664795
1670350772732066600,4.297066650390625,0.25991687178611755,0.14487169682979584,0.18322007358074188
1670350772741991700,4.30699169921875,0.24287313222885132,0.1384802907705307,0.15765449404716492
1670350772751917000,4.3169169921875,0.2247641682624817,0.11078423261642456,0.13102366030216217
1670350772761842200,4.32684228515625,0.18854624032974243,0.0958709716796875,0.09906667470932007
1670350772771767600,4.336767578125,0.1501978635787964,0.09906667470932007,0.05432688444852829
1670350772781692700,4.346692626953125,0.1278279572725296,0.0852186381816864,-0.0010652330238372087
1670350772791618000,4.3566181640625,0.11611039936542511,0.04793548583984375,-0.05219641700387001
1670350772801543200,4.366543212890625,0.10332760214805603,0.0031956990715116262,-0.08202294260263443
1670350772811468500,4.376468505859375,0.07882724702358246,-0.03089175745844841,-0.08734910935163498
1670350772821393700,4.3863935546875,0.04367455467581749,-0.03834838792681694,-0.0745663121342659
1670350772831319000,4.396319091796875,0.01171756349503994,-0.02556559257209301,-0.05219641700387001
1670350772841244400,4.406244384765625,-0.0031956990715116262,0.0021304660476744175,-0.02982652559876442
1670350772851169500,4.41616943359375,0.0031956990715116262,0.05006595328450203,-0.01491326279938221
1670350772861095000,4.426094970703125,0.02236989326775074,0.10439283400774002,-0.0063913981430232525
1670350772871020000,4.43602001953125,0.04367455467581749,0.12250179797410965,0.0063913981430232525
1670350772880945400,4.4459453125,0.0532616525888443,0.1065233051776886,0.01917419396340847
1670350772890870500,4.45587060546875,0.05219641700387001,0.09161003679037094,0.02450035884976387
1670350772900796000,4.4657958984375,0.04793548583984375,0.10013190656900406,0.02450035884976387
1670350772910721000,4.475720947265625,0.04047885537147522,0.11504516750574112,0.02556559257209301
1670350772920646400,4.485646484375,0.02556559257209301,0.10226237028837204,0.03728315606713295
1670350772930571800,4.49557177734375,0.01491326279938221,0.06604444980621338,0.0426093190908432
1670350772940497000,4.505496826171875,0.02023942768573761,0.05645735189318657,0.04047885537147522
1670350772950422300,4.51542236328125,0.02876129187643528,0.0745663121342659,0.03621792420744896
1670350772960347400,4.525347412109375,0.03728315606713295,0.08095771074295044,0.02982652559876442
1670350772970272800,4.535272705078125,0.04687025398015976,0.12569749355316162,0.03621792420744896
1670350772980198000,4.545197998046875,0.05858781561255455,0.16404588520526886,0.06284874677658081
1670350772990123300,4.555123291015625,0.07137060910463333,0.1928071826696396,0.07776200771331787
1670350773000048600,4.565048583984375,0.09161003679037094,0.21837277710437775,0.08734910935163498
1670350773009974000,4.57497412109375,0.10758853703737259,0.1906767040491104,0.08841434121131897
1670350773019899100,4.584899169921875,0.10758853703737259,0.13528458774089813,0.07989247888326645
1670350773029824500,4.594824462890625,0.08841434121131897,0.08095771074295044,0.08095771074295044
1670350773039750000,4.60475,0.06497921794652939,0.02343512699007988,0.07243584841489792
1670350773049675300,4.61467529296875,0.03834838792681694,-0.0053261648863554,0.05858781561255455
1670350773059600400,4.624600341796875,0.0213046595454216,0.0031956990715116262,0.06710968166589737
1670350773069525800,4.63452587890625,0.01171756349503994,0.00852186419069767,0.0852186381816864
1670350773079451100,4.644451171875,0.01171756349503994,0.02023942768573761,0.10013190656900406
1670350773089376500,4.65437646484375,0.0213046595454216,0.0426093190908432,0.09267527610063553
1670350773099301600,4.664301513671875,0.03515268862247467,0.07030537724494934,0.07989247888326645
1670350773109227000,4.67422705078125,0.03941362351179123,0.09161003679037094,0.07243584841489792
1670350773119152400,4.68415234375,0.04047885537147522,0.08628387749195099,0.07137060910463333
1670350773129077800,4.694077880859375,0.03515268862247467,0.06071828305721283,0.07350108027458191
1670350773139003000,4.7040029296875,0.02343512699007988,0.02982652559876442,0.06497921794652939
1670350773148928300,4.71392822265625,0.01810896210372448,0.0031956990715116262,0.04580501839518547
1670350773158853600,4.723853515625,0.01384802907705307,-0.01704372838139534,0.02236989326775074
1670350773168779000,4.733779052734375,0.007456631399691105,-0.03728315606713295,-0.0010652330238372087
1670350773178704400,4.743704345703125,0.0010652330238372087,-0.05858781561255455,-0.01491326279938221
1670350773188629500,4.75362939453125,-0.007456631399691105,-0.0639139786362648,-0.012782796286046505
1670350773198555000,4.763554931640625,-0.01171756349503994,-0.04367455467581749,-0.00852186419069767
1670350773208480300,4.773480224609375,-0.0053261648863554,-0.007456631399691105,-0.0021304660476744175
1670350773218405600,4.783405517578125,0.0053261648863554,0.02556559257209301,0.00852186419069767
1670350773228330800,4.793330810546875,0.01171756349503994,0.03089175745844841,0.02450035884976387
1670350773238256000,4.803256103515625,0.012782796286046505,0.02876129187643528,0.04047885537147522
1670350773248181500,4.813181396484375,0.01384802907705307,0.02769605815410614,0.04900071769952774
1670350773258107000,4.82310693359375,0.01810896210372448,0.02769605815410614,0.0426093190908432
1670350773268032000,4.833031982421875,0.02236989326775074,0.03089175745844841,0.02236989326775074
1670350773277957400,4.842957275390625,0.03089175745844841,0.04047885537147522,0.0021304660476744175
1670350773287882800,4.8528828125,0.03408745676279068,0.05645735189318657,-0.0063913981430232525
1670350773297808100,4.86280810546875,0.03089175745844841,0.07669677585363388,-0.0053261648863554
1670350773307733200,4.872733154296875,0.03408745676279068,0.10332760214805603,-0.004260932095348835
1670350773317658600,4.88265869140625,0.03834838792681694,0.11824086308479309,0
1670350773327584000,4.892583984375,0.03834838792681694,0.11930610239505768,0.012782796286046505
1670350773337509400,4.90250927734375,0.03515268862247467,0.11078423261642456,0.03089175745844841
1670350773347434500,4.9124345703125,0.04473978653550148,0.1267627328634262,0.03941362351179123
1670350773357359900,4.92235986328125,0.06497921794652939,0.17789392173290253,0.02769605815410614
1670350773367285200,4.93228515625,0.05965305119752884,0.27163442969322205,0.10758853703737259
1670350773377210600,4.942210693359375,-0.0021304660476744175,0.23967742919921875,0.17469821870326996
1670350773387135700,4.9521357421875,-0.02343512699007988,0.14593692123889923,0.1597849577665329
1670350773397061000,4.96206103515625,-0.0053261648863554,0.14167599380016327,0.04900071769952774
1670350773406986500,4.971986572265625,0.02769605815410614,0.13634982705116272,-0.08415340632200241
1670350773416912000,4.981911865234375,0.0639139786362648,0.1374150663614273,-0.18748101592063904
1670350773426837000,4.9918369140625,0.08947957307100296,0.1384802907705307,-0.21730753779411316
1670350773436762400,5.001762451171875,0.10439283400774002,0.10013190656900406,-0.19919857382774353
1670350773446687700,5.011687744140625,0.11184946447610855,0.05006595328450203,-0.1384802907705307
1670350773456613000,5.021613037109375,0.10971900075674057,0.03728315606713295,-0.02663082629442215
1670350773466538200,5.031538330078125,0.07669677585363388,0.04473978653550148,0.10758853703737259
1670350773476463600,5.041463623046875,0.007456631399691105,0.03834838792681694,0.2119813710451126
1670350773486389000,5.051388916015625,-0.03728315606713295,0,0.2236989289522171
1670350773496314400,5.061314453125,-0.02769605815410614,-0.02769605815410614,0.15552401542663574
1670350773506239500,5.071239501953125,-0.0063913981430232525,-0.01171756349503994,0.05645735189318657
1670350773516164900,5.081164794921875,0.009587096981704235,0.02556559257209301,-0.03302222490310669
1670350773526090200,5.09109033203125,0.02236989326775074,0.04367455467581749,-0.09374050796031952
1670350773536015600,5.101015625,0.01704372838139534,0.009587096981704235,-0.11078423261642456
1670350773545940700,5.110940673828125,-0.012782796286046505,-0.0426093190908432,-0.08628387749195099
1670350773555866000,5.1208662109375,-0.04580501839518547,-0.13315412402153015,-0.0213046595454216
1670350773565791500,5.13079150390625,-0.10865376889705658,-0.3163742125034332,0.10758853703737259
1670350773575716900,5.140716796875,-0.1501978635787964,-0.28015628457069397,0.12463226169347763
1670350773585642000,5.15064208984375,-0.1395455300807953,-0.2684387266635895,0.12569749355316162
1670350773595567400,5.1605673828125,-0.1384802907705307,-0.26311254501342773,0.10332760214805603
1670350773605492700,5.17049267578125,-0.14274121820926666,-0.25139498710632324,0.09906667470932007
1670350773615418000,5.180418212890625,-0.1587197184562683,-0.23648172616958618,0.10545806586742401
1670350773625343200,5.19034326171875,-0.1704372763633728,-0.20772044360637665,0.1065233051776886
1670350773635268600,5.2002685546875,-0.1597849577665329,-0.1491326242685318,0.08628387749195099
1670350773645194000,5.210194091796875,-0.12569749355316162,-0.08308817446231842,0.05965305119752884
1670350773655119400,5.220119384765625,-0.08202294260263443,-0.004260932095348835,0.0213046595454216
1670350773665044500,5.23004443359375,-0.04900071769952774,0.0426093190908432,-0.03621792420744896
1670350773674969900,5.239969970703125,-0.03302222490310669,0.04367455467581749,-0.08841434121131897
1670350773684895200,5.249895263671875,-0.0213046595454216,0.01810896210372448,-0.11184946447610855
1670350773694820600,5.259820556640625,-0.02343512699007988,-0.01491326279938221,-0.09800143539905548
1670350773704745700,5.269745849609375,-0.04473978653550148,-0.03621792420744896,-0.0745663121342659
1670350773714671000,5.279671142578125,-0.0532616525888443,-0.03515268862247467,-0.04154408723115921
1670350773724596500,5.289596435546875,-0.04367455467581749,-0.0031956990715116262,-0.0063913981430232525
1670350773734521900,5.29952197265625,-0.01704372838139534,0.07137060910463333,-0.0021304660476744175
1670350773744447000,5.309447021484375,0.02663082629442215,0.16511112451553345,-0.05432688444852829
1670350773754372400,5.319372314453125,0.05539211630821228,0.4804200828075409,-0.05432688444852829
1670350773764297700,5.329297607421875,0.0213046595454216,0.39094051718711853,-0.18748101592063904
1670350773774223000,5.33922314453125,0.05858781561255455,0.07989247888326645,-0.3089175820350647
1670350773784148200,5.349148193359375,0.09693620353937149,-0.04687025398015976,-0.24819929897785187
1670350773794073600,5.359073486328125,0.04793548583984375,-0.1491326242685318,-0.10865376889705658
1670350773803999000,5.3689990234375,-0.02982652559876442,-0.21091613173484802,0.02343512699007988
1670350773813924400,5.37892431640625,-0.08095771074295044,-0.2247641682624817,0.1288931965827942
1670350773823849500,5.388849365234375,-0.10865376889705658,-0.15658925473690033,0.21624229848384857
1670350773833774800,5.39877490234375,-0.10332760214805603,-0.09054480493068695,0.2247641682624817
1670350773843700200,5.4087001953125,-0.0532616525888443,-0.0106523297727108,0.15445879101753235
1670350773853625600,5.41862548828125,-0.0021304660476744175,0.04793548583984375,0.03621792420744896
1670350773863550700,5.42855078125,0.0213046595454216,0.08628387749195099,-0.05539211630821228
1670350773873476000,5.43847607421875,0.03089175745844841,0.12356702983379364,-0.09161003679037094
1670350773883401500,5.4484013671875,0.04047885537147522,0.14487169682979584,-0.10545806586742401
1670350773893326800,5.458326904296875,0.04900071769952774,0.12463226169347763,-0.12143656611442566
1670350773903252000,5.468251953125,0.05113118514418602,0.1491326242685318,-0.09480573982000351
1670350773913177300,5.47817724609375,0.02769605815410614,0.2961347699165344,-0.03302222490310669
1670350773923102700,5.488102783203125,0.012782796286046505,0.2641777992248535,-0.08947957307100296
1670350773933028000,5.498028076171875,0.04473978653550148,0.1810896098613739,-0.1608501821756363
1670350773942953200,5.507953125,0.06924014538526535,0.01491326279938221,-0.2013290375471115
1670350773952878600,5.517878662109375,0.06604444980621338,-0.1480673849582672,-0.16617634892463684
1670350773962804000,5.527803955078125,0.03515268862247467,-0.20026381313800812,-0.03834838792681694
1670350773972729300,5.537729248046875,-0.04367455467581749,-0.14487169682979584,0.1384802907705307
1670350773982654500,5.547654541015625,-0.11930610239505768,-0.15765449404716492,0.256721168756485
1670350773992579800,5.557579833984375,-0.1288931965827942,-0.1384802907705307,0.2876129150390625
1670350774002505200,5.567505126953125,-0.09161003679037094,-0.06710968166589737,0.2226337045431137
1670350774012430600,5.5774306640625,-0.05113118514418602,0.0031956990715116262,0.10971900075674057
1670350774022355700,5.587355712890625,-0.01917419396340847,0.07137060910463333,0.02769605815410614
1670350774032281000,5.597281005859375,-0.0021304660476744175,0.11504516750574112,-0.02236989326775074
1670350774042206500,5.60720654296875,0.01491326279938221,0.1395455300807953,-0.05645735189318657
1670350774052131800,5.6171318359375,0.03621792420744896,0.12569749355316162,-0.07563154399394989
1670350774062057000,5.627056884765625,0.06178351491689682,0.24926452338695526,-0.04154408723115921
1670350774071982300,5.636982421875,0.04580501839518547,0.4782896339893341,-0.0053261648863554
1670350774081907700,5.64690771484375,0.03302222490310669,0.28228676319122314,-0.1480673849582672
1670350774091833000,5.6568330078125,0.07350108027458191,0.05432688444852829,-0.25032976269721985
1670350774101758200,5.66675830078125,0.08308817446231842,-0.13315412402153015,-0.21943800151348114
1670350774111683600,5.67668359375,0.04900071769952774,-0.21943800151348114,-0.0958709716796875
1670350774121609000,5.68660888671875,-0.0106523297727108,-0.1608501821756363,0.0745663121342659
1670350774131534300,5.696534423828125,-0.08095771074295044,-0.12250179797410965,0.14700216054916382
1670350774141459500,5.70645947265625,-0.07350108027458191,-0.14700216054916382,0.1278279572725296
1670350774151384800,5.716384765625,-0.0426093190908432,-0.1395455300807953,0.08095771074295044
1670350774161310200,5.726310302734375,-0.02876129187643528,-0.05539211630821228,0.04047885537147522
1670350774171235600,5.736235595703125,-0.0063913981430232525,0.04687025398015976,-0.0063913981430232525
1670350774181160700,5.74616064453125,0.02236989326775074,0.10758853703737259,-0.06178351491689682
1670350774191086000,5.756086181640625,0.04047885537147522,0.16511112451553345,-0.08628387749195099
1670350774201011500,5.766011474609375,0.02769605815410614,0.16617634892463684,-0.06604444980621338
1670350774210936800,5.775936767578125,-0.01491326279938221,0.28441721200942993,0.02982652559876442
1670350774220862000,5.785862060546875,-0.03408745676279068,0.19813334941864014,-0.009587096981704235
1670350774230787300,5.795787353515625,0.009587096981704235,0.0745663121342659,-0.09480573982000351
1670350774240712700,5.805712646484375,0.03302222490310669,-0.07137060910463333,-0.1715025156736374
1670350774250638000,5.81563818359375,0.03941362351179123,-0.13102366030216217,-0.15339355170726776
1670350774260563200,5.825563232421875,0.03515268862247467,-0.11397993564605713,-0.05432688444852829
1670350774270488600,5.835488525390625,0.004260932095348835,-0.04367455467581749,0.07563154399394989
1670350774280414000,5.8454140625,-0.03621792420744896,-0.02343512699007988,0.14380645751953125
1670350774290339300,5.85533935546875,-0.02663082629442215,-0.04367455467581749,0.1384802907705307
1670350774300264400,5.865264404296875,-0.0106523297727108,-0.03941362351179123,0.09693620353937149
1670350774310189800,5.87518994140625,-0.007456631399691105,0.0106523297727108,0.05752258375287056
1670350774320115200,5.885115234375,-0.0106523297727108,0.05219641700387001,0.01491326279938221
1670350774330040600,5.89504052734375,-0.01384802907705307,0.03621792420744896,-0.03515268862247467
1670350774339965700,5.904965576171875,-0.009587096981704235,0.04367455467581749,-0.06178351491689682
1670350774349891000,5.91489111328125,-0.009587096981704235,0.0213046595454216,-0.07776200771331787
1670350774359816400,5.92481640625,-0.01491326279938221,0.10971900075674057,-0.03302222490310669
1670350774369741800,5.934741943359375,-0.0319569893181324,0.18322007358074188,-0.02556559257209301
1670350774379667000,5.9446669921875,0.0010652330238372087,0.08202294260263443,-0.1171756312251091
1670350774389592300,5.95459228515625,0.05219641700387001,-0.0745663121342659,-0.2013290375471115
1670350774399517700,5.964517578125,0.06710968166589737,-0.1384802907705307,-0.1587197184562683
1670350774409443000,5.974443115234375,0.0319569893181324,-0.06497921794652939,-0.01917419396340847
1670350774419368200,5.9843681640625,-0.03408745676279068,-0.0053261648863554,0.08841434121131897
1670350774429293600,5.99429345703125,-0.04793548583984375,-0.04793548583984375,0.10119713842868805
1670350774439219000,6.004218994140625,-0.012782796286046505,-0.0532616525888443,0.07243584841489792
1670350774449144300,6.014144287109375,-0.01171756349503994,-0.03515268862247467,0.02982652559876442
1670350774459069700,6.024069580078125,-0.01491326279938221,0.004260932095348835,0.009587096981704235
1670350774468994800,6.033994873046875,-0.012782796286046505,0.03408745676279068,-0.01704372838139534
1670350774478920200,6.043920166015625,-0.007456631399691105,0.04473978653550148,-0.04047885537147522
1670350774488845600,6.053845458984375,0.0021304660476744175,0.06817491352558136,-0.04154408723115921
1670350774498771000,6.06377099609375,0.0010652330238372087,0.13208889961242676,0.004260932095348835
1670350774508696000,6.073696044921875,-0.04047885537147522,0.2343512624502182,0.0639139786362648
1670350774518621400,6.083621337890625,-0.02876129187643528,0.12037133425474167,-0.0053261648863554
1670350774528546800,6.093546875,0.02023942768573761,0.05645735189318657,-0.09374050796031952
1670350774538472200,6.10347216796875,0.0319569893181324,-0.0532616525888443,-0.1704372763633728
1670350774548397300,6.113397216796875,0.04687025398015976,-0.14593692123889923,-0.16191542148590088
1670350774558322700,6.12332275390625,0.04367455467581749,-0.1501978635787964,-0.06178351491689682
1670350774568248000,6.133248046875,-0.0021304660476744175,-0.0958709716796875,0.08734910935163498
1670350774578173400,6.14317333984375,-0.05432688444852829,-0.08308817446231842,0.16191542148590088
1670350774588098600,6.1530986328125,-0.0319569893181324,-0.04687025398015976,0.1374150663614273
1670350774598024000,6.16302392578125,0.02769605815410614,0.09161003679037094,0.05006595328450203
1670350774607949300,6.17294921875,0.09054480493068695,0.2961347699165344,-0.08202294260263443
1670350774617874700,6.182874755859375,0.15765449404716492,0.4814853370189667,-0.22795987129211426
1670350774627799800,6.1927998046875,0.20026381313800812,0.5102466344833374,-0.3408745527267456
1670350774637725200,6.20272509765625,0.22902509570121765,0.44846311211586,-0.3536573648452759
1670350774647650600,6.212650634765625,0.23861220479011536,0.39946237206459045,-0.299330472946167
1670350774657576000,6.222575927734375,0.2141118347644806,0.3525921404361725,-0.256721168756485
1670350774667501000,6.2325009765625,0.1810896098613739,0.3067871034145355,-0.23222079873085022
1670350774677426400,6.242426513671875,0.16724158823490143,0.2684387266635895,-0.19919857382774353
1670350774687351800,6.252351806640625,0.1491326242685318,0.1608501821756363,-0.15552401542663574
1670350774697277200,6.262277099609375,0.0958709716796875,-0.0031956990715116262,-0.06817491352558136
1670350774707202300,6.272202392578125,0.01171756349503994,-0.08202294260263443,0.07989247888326645
1670350774717127700,6.282127685546875,-0.06604444980621338,-0.08308817446231842,0.22156846523284912
1670350774727053000,6.292052978515625,-0.09054480493068695,-0.08841434121131897,0.2556559145450592
1670350774736978400,6.301978515625,-0.06284874677658081,-0.08628387749195099,0.19813334941864014
1670350774746903600,6.311903564453125,-0.03302222490310669,-0.07030537724494934,0.12143656611442566
1670350774756829000,6.321828857421875,-0.01704372838139534,-0.01917419396340847,0.07776200771331787
1670350774766754300,6.33175439453125,-0.01491326279938221,0.02876129187643528,0.04154408723115921
1670350774776679700,6.3416796875,-0.0159784946590662,-0.01384802907705307,0.00852186419069767
1670350774786604800,6.351604736328125,-0.02982652559876442,-0.0958709716796875,0.02450035884976387
1670350774796530200,6.3615302734375,-0.05432688444852829,-0.11504516750574112,0.08734910935163498
1670350774806455600,6.37145556640625,-0.0852186381816864,-0.1065233051776886,0.14061075448989868
1670350774816381000,6.381380859375,-0.10013190656900406,-0.11291470378637314,0.1587197184562683
1670350774826306000,6.39130615234375,-0.09693620353937149,-0.12569749355316162,0.15765449404716492
1670350774836231400,6.4012314453125,-0.09800143539905548,-0.12037133425474167,0.15552401542663574
1670350774846156800,6.41115673828125,-0.10439283400774002,-0.1267627328634262,0.15339355170726776
1670350774856082200,6.421082275390625,-0.10119713842868805,-0.15552401542663574,0.14487169682979584
1670350774866007300,6.43100732421875,-0.09906667470932007,-0.1928071826696396,0.1288931965827942
1670350774875932700,6.4409326171875,-0.10119713842868805,-0.1928071826696396,0.10971900075674057
1670350774885858000,6.450858154296875,-0.09161003679037094,-0.15765449404716492,0.08947957307100296
1670350774895783400,6.460783447265625,-0.06604444980621338,-0.12143656611442566,0.06071828305721283
1670350774905708500,6.47070849609375,-0.03834838792681694,-0.07669677585363388,0.02450035884976387
1670350774915634000,6.480634033203125,-0.01704372838139534,-0.00852186419069767,-0.01491326279938221
1670350774925559300,6.490559326171875,0.009587096981704235,0.06817491352558136,-0.04793548583984375
1670350774935484700,6.500484619140625,0.03408745676279068,0.1171756312251091,-0.07563154399394989
1670350774945409800,6.510409912109375,0.0426093190908432,0.1267627328634262,-0.10226237028837204
1670350774955335200,6.520335205078125,0.04154408723115921,0.08841434121131897,-0.09693620353937149
1670350774965260500,6.530260498046875,0.02982652559876442,0.03834838792681694,-0.05219641700387001
1670350774975186000,6.54018603515625,0.00852186419069767,0.007456631399691105,0.004260932095348835
1670350774985111000,6.550111083984375,-0.0031956990715116262,-0.004260932095348835,0.0426093190908432
1670350774995036400,6.560036376953125,0,0.007456631399691105,0.04580501839518547
1670350775004961800,6.5699619140625,0.01171756349503994,0.03621792420744896,0.02556559257209301
1670350775014887200,6.57988720703125,0.02343512699007988,0.08202294260263443,-0.004260932095348835
1670350775024812300,6.589812255859375,0.03621792420744896,0.12143656611442566,-0.04473978653550148
1670350775034737700,6.599737548828125,0.05113118514418602,0.14700216054916382,-0.09480573982000351
1670350775044663000,6.6096630859375,0.06071828305721283,0.1374150663614273,-0.1278279572725296
1670350775054588400,6.61958837890625,0.06071828305721283,0.10865376889705658,-0.10545806586742401
1670350775064513500,6.629513427734375,0.04473978653550148,0.12250179797410965,-0.04793548583984375
1670350775074439000,6.63943896484375,0.0319569893181324,0.12143656611442566,-0.01171756349503994
1670350775084364300,6.6493642578125,0.04473978653550148,0.14700216054916382,0.0021304660476744175
1670350775094289700,6.65928955078125,0.07137060910463333,0.29400432109832764,0.03515268862247467
1670350775104214800,6.66921484375,0.05752258375287056,0.6796186566352844,0.2247641682624817
1670350775114140200,6.67914013671875,-0.02450035884976387,0.25991687178611755,0.18961147964000702
1670350775124065500,6.6890654296875,-0.05432688444852829,-0.06497921794652939,0.04687025398015976
1670350775133991000,6.698990966796875,-0.03515268862247467,-0.15339355170726776,-0.06284874677658081
1670350775143916000,6.708916015625,-0.04154408723115921,-0.2748301327228546,-0.08202294260263443
1670350775153841400,6.71884130859375,-0.05432688444852829,-0.29400432109832764,-0.03621792420744896
1670350775163766800,6.728766845703125,-0.03941362351179123,-0.3515268862247467,0.05965305119752884
1670350775173692200,6.738692138671875,-0.02556559257209301,-0.30465665459632874,0.24074266850948334
1670350775183617300,6.7486171875,-0.0639139786362648,-0.15445879101753235,0.36537492275238037
1670350775193542700,6.758542724609375,-0.07563154399394989,-0.01917419396340847,0.2748301327228546
1670350775203468000,6.768468017578125,-0.009587096981704235,0.09054480493068695,0.08308817446231842
1670350775213393400,6.778393310546875,0.06710968166589737,0.1715025156736374,-0.10545806586742401
1670350775223318500,6.788318603515625,0.11291470378637314,0.23222079873085022,-0.21517707407474518
1670350775233244000,6.798243896484375,0.1278279572725296,0.25139498710632324,-0.26098209619522095
1670350775243169300,6.808169189453125,0.13528458774089813,0.21943800151348114,-0.2588516175746918
1670350775253094700,6.8180947265625,0.1374150663614273,0.18748101592063904,-0.21517707407474518
1670350775263019800,6.828019775390625,0.1267627328634262,0.17576344311237335,-0.15232832729816437
1670350775272945200,6.837945068359375,0.11611039936542511,0.16830681264400482,-0.10013190656900406
1670350775282870500,6.84787060546875,0.11824086308479309,0.18854624032974243,-0.06497921794652939
1670350775292796000,6.8577958984375,0.12143656611442566,0.27376487851142883,-0.04580501839518547
1670350775302721000,6.867720947265625,0.09693620353937149,0.40798425674438477,-0.04047885537147522
1670350775312646400,6.877646484375,-0.02236989326775074,0.5549864172935486,-0.02876129187643528
1670350775322571800,6.88757177734375,-0.11611039936542511,0.6295527219772339,0
1670350775332497200,6.8974970703125,-0.16617634892463684,0.682814359664917,0.04367455467581749
1670350775342422300,6.90742236328125,-0.21517707407474518,0.7967942953109741,0.05432688444852829
1670350775352347600,6.91734765625,-0.24287313222885132,0.9651011228561401,0.02876129187643528
1670350775362273000,6.92727294921875,-0.20985090732574463,1.1259512901306152,-0.0106523297727108
1670350775372198400,6.937198486328125,-0.14274121820926666,1.234605073928833,-0.06710968166589737
1670350775382123500,6.94712353515625,-0.0639139786362648,1.271888256072998,-0.12995843589305878
1670350775392049000,6.957048828125,0.012782796286046505,1.22501802444458,-0.17789392173290253
1670350775401974300,6.966974365234375,0.08308817446231842,1.1525821685791016,-0.20026381313800812
1670350775411899600,6.976899658203125,0.1288931965827942,1.07588529586792,-0.22050324082374573
1670350775421824800,6.98682470703125,0.15658925473690033,0.9938623905181885,-0.22582940757274628
1670350775431750100,6.996750244140625,0.17256775498390198,0.9065132737159729,-0.18748101592063904
1670350775441675500,7.006675537109375,0.15552401542663574,0.790402889251709,-0.1065233051776886
1670350775451601000,7.016600830078125,0.11291470378637314,0.6497921347618103,0.0021304660476744175
1670350775461526000,7.026526123046875,0.06817491352558136,0.46444159746170044,0.13528458774089813
1670350775471451400,7.036451416015625,0.0159784946590662,0.25032976269721985,0.20985090732574463
1670350775481376800,7.046376708984375,-0.007456631399691105,0.11397993564605713,0.20452474057674408
1670350775491302100,7.05630224609375,0.012782796286046505,0.06710968166589737,0.19387240707874298
1670350775501227300,7.066227294921875,0.007456631399691105,0.07989247888326645,0.15126308798789978
1670350775511152600,7.076152587890625,0.009587096981704235,0.11824086308479309,0.1171756312251091
1670350775521078000,7.086078125,0.0319569893181324,0.1395455300807953,0.10332760214805603
1670350775531003400,7.09600341796875,0.04900071769952774,0.16298064589500427,0.08202294260263443
1670350775540928500,7.105928466796875,0.05858781561255455,0.21091613173484802,0.06604444980621338
1670350775550854000,7.11585400390625,0.06817491352558136,0.2226337045431137,0.06710968166589737
1670350775560779300,7.125779296875,0.06710968166589737,0.19600287079811096,0.08734910935163498
1670350775570704600,7.13570458984375,0.05113118514418602,0.17895914614200592,0.11824086308479309
1670350775580629800,7.145629638671875,0.0426093190908432,0.14487169682979584,0.1480673849582672
1670350775590555100,7.15555517578125,0.04154408723115921,0.08734910935163498,0.1597849577665329
1670350775600480500,7.16548046875,0.04047885537147522,0.05965305119752884,0.1597849577665329
1670350775610406000,7.175406005859375,0.04047885537147522,0.06817491352558136,0.1715025156736374
1670350775620331000,7.1853310546875,0.03728315606713295,0.09693620353937149,0.17895914614200592
1670350775630256400,7.19525634765625,0.02450035884976387,0.18322007358074188,0.16404588520526886
1670350775640181800,7.205181640625,0.02663082629442215,0.26204732060432434,0.14593692123889923
1670350775650107100,7.215107177734375,0.03621792420744896,0.2684387266635895,0.1288931965827942
1670350775660032300,7.2250322265625,0.04793548583984375,0.2684387266635895,0.11184946447610855
1670350775669957600,7.23495751953125,0.06604444980621338,0.26311254501342773,0.11611039936542511
1670350775679883000,7.244883056640625,0.07243584841489792,0.28441721200942993,0.1480673849582672
1670350775689808400,7.254808349609375,0.05006595328450203,0.2460688352584839,0.2023942768573761
1670350775699733500,7.2647333984375,0.02236989326775074,0.16191542148590088,0.2748301327228546
1670350775709659000,7.274658935546875,0.0106523297727108,0.18961147964000702,0.3110480308532715
1670350775719584300,7.284584228515625,0.0063913981430232525,0.4495283365249634,0.29187384247779846
1670350775729509600,7.294509521484375,0.0426093190908432,1.1845390796661377,0.04900071769952774
1670350775739435000,7.30443505859375,0.11078423261642456,0.4995943009853363,-0.22795987129211426
1670350775749360000,7.314360107421875,0.1501978635787964,0.0106523297727108,-0.3430050313472748
1670350775759285500,7.324285400390625,0.08734910935163498,-0.03621792420744896,-0.2013290375471115
1670350775769211000,7.3342109375,0,-0.1597849577665329,0.05858781561255455
1670350775779136300,7.34413623046875,-0.04580501839518547,-0.4814853370189667,0.3089175820350647
1670350775789061400,7.354061279296875,-0.07030537724494934,-0.7264889478683472,0.49426811933517456
1670350775798986800,7.36398681640625,-0.10226237028837204,-0.5837476849555969,0.5965304970741272
1670350775808912100,7.373912109375,-0.12250179797410965,-0.3483312129974365,0.5656387209892273
1670350775818837500,7.38383740234375,-0.11930610239505768,-0.21943800151348114,0.38028818368911743
1670350775828762600,7.3937626953125,-0.10119713842868805,-0.0958709716796875,0.09054480493068695
1670350775838688000,7.40368798828125,-0.06284874677658081,0.02876129187643528,-0.22156846523284912
1670350775848613400,7.41361328125,0.0010652330238372087,0.07776200771331787,-0.51344233751297
1670350775858538800,7.423538818359375,0.07030537724494934,0.07563154399394989,-0.7019885778427124
1670350775868463900,7.4334638671875,0.1288931965827942,-0.0063913981430232525,-0.7456631064414978
1670350775878389200,7.44338916015625,0.13315412402153015,-0.13421936333179474,-0.6625749468803406
1670350775888314600,7.453314697265625,0.08734910935163498,-0.2247641682624817,-0.4559197425842285
1670350775898240000,7.463239990234375,0.00852186419069767,-0.27269965410232544,-0.191741943359375
1670350775908165000,7.4731650390625,-0.08734910935163498,-0.3206351399421692,0.03408745676279068
1670350775918090500,7.483090576171875,-0.14487169682979584,-0.3962666988372803,0.17469821870326996
1670350775928016000,7.493015869140625,-0.15126308798789978,-0.48574626445770264,0.252460241317749
1670350775937941200,7.502941162109375,-0.1587197184562683,-0.5698996782302856,0.29293906688690186
1670350775947866400,7.512866455078125,-0.16724158823490143,-0.6189003586769104,0.29293906688690186
1670350775957791700,7.522791748046875,-0.15765449404716492,-0.6007914543151855,0.25139498710632324
1670350775967717000,7.532717041015625,-0.1278279572725296,-0.5123770833015442,0.17256775498390198
1670350775977642500,7.542642578125,-0.08202294260263443,-0.38987529277801514,0.06924014538526535
1670350775987567600,7.552567626953125,-0.03408745676279068,-0.299330472946167,-0.03089175745844841
1670350775997493000,7.562492919921875,-0.0031956990715116262,-0.2343512624502182,-0.10439283400774002
1670350776007418400,7.57241845703125,0.00852186419069767,-0.1800243854522705,-0.13315412402153015
1670350776017343700,7.58234375,-0.0031956990715116262,-0.15339355170726776,-0.11930610239505768
1670350776027268900,7.592268798828125,-0.02556559257209301,-0.16511112451553345,-0.07776200771331787
1670350776037194200,7.6021943359375,-0.04047885537147522,-0.2141118347644806,-0.03515268862247467
1670350776047119600,7.61211962890625,-0.04047885537147522,-0.2748301327228546,-0.004260932095348835
1670350776057045000,7.622044921875,-0.03089175745844841,-0.3206351399421692,0.01491326279938221
1670350776066970000,7.63197021484375,-0.02876129187643528,-0.3483312129974365,0.02450035884976387
1670350776076895500,7.6418955078125,-0.03941362351179123,-0.36537492275238037,0.02023942768573761
1670350776086820900,7.65182080078125,-0.05645735189318657,-0.35685306787490845,-0.0063913981430232525
1670350776096746200,7.661746337890625,-0.07137060910463333,-0.3078523576259613,-0.04793548583984375
1670350776106671400,7.67167138671875,-0.07030537724494934,-0.28335198760032654,-0.07882724702358246
1670350776116596700,7.6815966796875,-0.06178351491689682,-0.28441721200942993,-0.10119713842868805
1670350776126522000,7.691522216796875,-0.05858781561255455,-0.28335198760032654,-0.10226237028837204
1670350776136447500,7.701447509765625,-0.05645735189318657,-0.2876129150390625,-0.08202294260263443
1670350776146372600,7.71137255859375,-0.05645735189318657,-0.30146095156669617,-0.05645735189318657
1670350776156298000,7.721298095703125,-0.06071828305721283,-0.3217003643512726,-0.03089175745844841
1670350776166223400,7.731223388671875,-0.07137060910463333,-0.35578784346580505,-0.0053261648863554
1670350776176148700,7.741148681640625,-0.09480573982000351,-0.38348388671875,0.009587096981704235
1670350776186073900,7.751073974609375,-0.11504516750574112,-0.39733192324638367,0.0031956990715116262
1670350776195999200,7.760999267578125,-0.11824086308479309,-0.3707011044025421,-0.02236989326775074
1670350776205924600,7.770924560546875,-0.10013190656900406,-0.28335198760032654,-0.05539211630821228
1670350776215850000,7.78085009765625,-0.06497921794652939,-0.2013290375471115,-0.08415340632200241
1670350776225775000,7.790775146484375,-0.03941362351179123,-0.18428531289100647,-0.10545806586742401
1670350776235700500,7.800700439453125,-0.02876129187643528,-0.23861220479011536,-0.10439283400774002
1670350776245625900,7.8106259765625,-0.03089175745844841,-0.29400432109832764,-0.07669677585363388
1670350776255551200,7.82055126953125,-0.04473978653550148,-0.3099828064441681,-0.0426093190908432
1670350776265476400,7.830476318359375,-0.05006595328450203,-0.3163742125034332,-0.01917419396340847
1670350776275401700,7.840401611328125,-0.05432688444852829,-0.2982652485370636,-0.0159784946590662
1670350776285327000,7.8503271484375,-0.04687025398015976,-0.26098209619522095,-0.02556559257209301
1670350776295252500,7.86025244140625,-0.03408745676279068,-0.22156846523284912,-0.03834838792681694
1670350776305177600,7.870177490234375,-0.02876129187643528,-0.19706811010837555,-0.04367455467581749
1670350776315103000,7.88010302734375,-0.02663082629442215,-0.20878566801548004,-0.04473978653550148
1670350776325028400,7.8900283203125,-0.03089175745844841,-0.22156846523284912,-0.04047885537147522
1670350776334953700,7.89995361328125,-0.03515268862247467,-0.21624229848384857,-0.03515268862247467
1670350776344878800,7.90987890625,-0.03941362351179123,-0.18961147964000702,-0.03089175745844841
1670350776354804200,7.91980419921875,-0.04473978653550148,-0.17256775498390198,-0.02876129187643528
1670350776364729600,7.9297294921875,-0.03728315606713295,-0.18748101592063904,-0.02450035884976387
1670350776374655000,7.939655029296875,-0.03408745676279068,-0.16298064589500427,-0.02556559257209301
1670350776384580000,7.949580078125,-0.02343512699007988,-0.13528458774089813,-0.02556559257209301
1670350776394505500,7.95950537109375,-0.01810896210372448,-0.12569749355316162,-0.02556559257209301
1670350776404430800,7.969430908203125,-0.01917419396340847,-0.10226237028837204,-0.02982652559876442
1670350776414356200,7.979356201171875,-0.01491326279938221,-0.08095771074295044,-0.03408745676279068
1670350776424281300,7.98928125,-0.00852186419069767,-0.06497921794652939,-0.03941362351179123
1670350776434206700,7.999206787109375,-0.0010652330238372087,-0.05965305119752884,-0.05006595328450203
1670350776444132000,8.009132080078125,0.0053261648863554,-0.07030537724494934,-0.06497921794652939
1670350776454057500,8.019057373046875,0.0063913981430232525,-0.06284874677658081,-0.08095771074295044
1670350776463982800,8.02898291015625,0.0063913981430232525,-0.05006595328450203,-0.08841434121131897
1670350776473908200,8.038908203125,0.007456631399691105,-0.04793548583984375,-0.08947957307100296
1670350776483833600,8.04883349609375,0.004260932095348835,-0.05965305119752884,-0.08841434121131897
1670350776493758700,8.0587587890625,-0.004260932095348835,-0.06178351491689682,-0.0852186381816864
1670350776503684000,8.06868408203125,-0.009587096981704235,-0.05113118514418602,-0.0745663121342659
1670350776513609500,8.078609375,-0.01171756349503994,-0.03728315606713295,-0.06178351491689682
1670350776523534800,8.088534912109376,-0.01704372838139534,-0.04687025398015976,-0.05539211630821228
1670350776533460200,8.098460205078124,-0.01917419396340847,-0.06497921794652939,-0.04900071769952774
1670350776543385600,8.108385498046875,-0.02556559257209301,-0.07243584841489792,-0.04687025398015976
1670350776553311000,8.11831103515625,-0.0319569893181324,-0.07030537724494934,-0.04580501839518547
1670350776563236400,8.128236328125,-0.03089175745844841,-0.07030537724494934,-0.05006595328450203
1670350776573161700,8.13816162109375,-0.02450035884976387,-0.07030537724494934,-0.05645735189318657
1670350776583087000,8.148087158203126,-0.0213046595454216,-0.05645735189318657,-0.06284874677658081
1670350776593012500,8.158012451171874,-0.012782796286046505,-0.05113118514418602,-0.0639139786362648
1670350776602937900,8.167937744140625,-0.00852186419069767,-0.05006595328450203,-0.05965305119752884
1670350776612863200,8.17786328125,-0.004260932095348835,-0.03089175745844841,-0.04367455467581749
1670350776622788600,8.18778857421875,0.0031956990715116262,-0.02236989326775074,-0.02876129187643528
1670350776632714000,8.1977138671875,0.0063913981430232525,-0.02343512699007988,-0.02556559257209301
1670350776642639400,8.207639404296875,0.0063913981430232525,-0.01810896210372448,-0.02023942768573761
1670350776652564700,8.217564697265624,0.0053261648863554,-0.0021304660476744175,-0.01384802907705307
1670350776662490000,8.227489990234375,0.0063913981430232525,0,-0.0106523297727108
1670350776672415500,8.23741552734375,0.0106523297727108,-0.0053261648863554,-0.01810896210372448
1670350776682340900,8.2473408203125,0.012782796286046505,-0.0031956990715116262,-0.02663082629442215
1670350776692266200,8.257266357421875,0.01171756349503994,-0.007456631399691105,-0.0319569893181324
1670350776702191600,8.267191650390625,0.0063913981430232525,-0.03302222490310669,-0.0319569893181324
1670350776712116700,8.27711669921875,-0.0010652330238372087,-0.05113118514418602,-0.0319569893181324
1670350776722042000,8.2870419921875,-0.004260932095348835,-0.03728315606713295,-0.02343512699007988
1670350776731967500,8.296967529296875,-0.0063913981430232525,-0.02556559257209301,-0.01810896210372448
1670350776741892900,8.306892822265626,-0.009587096981704235,-0.02236989326775074,-0.02023942768573761
1670350776751818200,8.316818359375,-0.0063913981430232525,-0.04047885537147522,-0.01491326279938221
1670350776761743600,8.32674365234375,-0.0031956990715116262,-0.03089175745844841,-0.02556559257209301
1670350776771669000,8.3366689453125,0.0063913981430232525,-0.0213046595454216,-0.04047885537147522
1670350776781594400,8.346594482421875,0.012782796286046505,-0.02343512699007988,-0.05539211630821228
1670350776791519700,8.356519775390625,0.012782796286046505,-0.02343512699007988,-0.06284874677658081
1670350776801445000,8.366445068359376,0.0106523297727108,-0.05432688444852829,-0.06284874677658081
1670350776811370500,8.37637060546875,0.00852186419069767,-0.04047885537147522,-0.0639139786362648
1670350776821295900,8.3862958984375,0.012782796286046505,-0.0213046595454216,-0.06497921794652939
1670350776831221000,8.396220947265626,0.01491326279938221,-0.0159784946590662,-0.06071828305721283
1670350776841146400,8.406146484375,0.01491326279938221,-0.02023942768573761,-0.04793548583984375
1670350776851071700,8.41607177734375,0.01704372838139534,-0.01917419396340847,-0.0319569893181324
1670350776860997000,8.4259970703125,0.0213046595454216,-0.01704372838139534,-0.0159784946590662
1670350776870922200,8.435922119140624,0.02023942768573761,-0.01810896210372448,-0.007456631399691105
1670350776880847600,8.44584765625,0.02023942768573761,-0.02023942768573761,-0.00852186419069767
1670350776890773000,8.45577294921875,0.02663082629442215,-0.012782796286046505,-0.0159784946590662
1670350776900698400,8.465698486328124,0.0319569893181324,0.007456631399691105,-0.02236989326775074
1670350776910623500,8.47562353515625,0.03408745676279068,0.02450035884976387,-0.02236989326775074
1670350776920548900,8.485548828125,0.02876129187643528,0.02236989326775074,-0.0159784946590662
1670350776930474200,8.49547412109375,0.01384802907705307,0.004260932095348835,-0.012782796286046505
1670350776940399600,8.505399658203125,0.004260932095348835,0.0010652330238372087,-0.012782796286046505
1670350776950324700,8.51532470703125,0.00852186419069767,0.004260932095348835,-0.01917419396340847
1670350776960250000,8.52525,0.01704372838139534,0.0063913981430232525,-0.02343512699007988
1670350776970175500,8.535175537109374,0.0213046595454216,0.0106523297727108,-0.01810896210372448
1670350776980100900,8.545100830078125,0.02769605815410614,0.02450035884976387,-0.0106523297727108
1670350776990026000,8.55502587890625,0.03408745676279068,0.03408745676279068,-0.0106523297727108
1670350776999951400,8.564951416015624,0.04367455467581749,0.03089175745844841,-0.01171756349503994
1670350777009876700,8.574876708984375,0.04473978653550148,0.01384802907705307,-0.009587096981704235
1670350777019802000,8.584802001953125,0.03621792420744896,0.004260932095348835,-0.0021304660476744175
1670350777029727200,8.594727294921874,0.02982652559876442,0.007456631399691105,0.0106523297727108
1670350777039652600,8.604652587890625,0.02450035884976387,0.0063913981430232525,0.01384802907705307
1670350777049578000,8.614577880859375,0.02023942768573761,0.012782796286046505,0.01384802907705307
1670350777059503400,8.62450341796875,0.01810896210372448,0.02343512699007988,0.01171756349503994
1670350777069428500,8.634428466796875,0.01917419396340847,0.02769605815410614,0.007456631399691105
1670350777079353900,8.644353759765625,0.02450035884976387,0.01704372838139534,0
1670350777089279200,8.654279296875,0.02663082629442215,0.0063913981430232525,-0.012782796286046505
1670350777099204600,8.66420458984375,0.02663082629442215,-0.0021304660476744175,-0.01917419396340847
1670350777109129700,8.674129638671875,0.02343512699007988,-0.004260932095348835,-0.02236989326775074
1670350777119055000,8.68405517578125,0.0213046595454216,0.004260932095348835,-0.0159784946590662
1670350777128980500,8.69398046875,0.01810896210372448,0.00852186419069767,-0.00852186419069767
1670350777138905900,8.70390576171875,0.012782796286046505,0.01491326279938221,-0.00852186419069767
1670350777148831000,8.7138310546875,0.01171756349503994,0.02343512699007988,-0.004260932095348835
1670350777158756400,8.72375634765625,0.012782796286046505,0.02663082629442215,-0.0010652330238372087
1670350777168681700,8.733681640625,0.01704372838139534,0.02982652559876442,0
1670350777178607000,8.743607177734376,0.0213046595454216,0.03408745676279068,-0.0021304660476744175
1670350777188532200,8.7535322265625,0.02236989326775074,0.02982652559876442,-0.004260932095348835
1670350777198457600,8.76345751953125,0.01810896210372448,0.02663082629442215,-0.0021304660476744175
1670350777208383000,8.773383056640625,0.012782796286046505,0.012782796286046505,0.0010652330238372087
1670350777218308400,8.783308349609374,0.0031956990715116262,0,0.004260932095348835
1670350777228233500,8.7932333984375,-0.0021304660476744175,0.007456631399691105,0.0063913981430232525
1670350777238158800,8.803158935546875,-0.0010652330238372087,0.00852186419069767,0
1670350777248084200,8.813084228515624,0,0.0053261648863554,-0.00852186419069767
1670350777258009600,8.823009521484375,0,0.01171756349503994,-0.0053261648863554
1670350777267934700,8.832934814453125,-0.0010652330238372087,0.03089175745844841,0.00852186419069767
1670350777277860000,8.842860107421876,0.0053261648863554,0.0426093190908432,0.02450035884976387
1670350777287785500,8.852785400390625,0.0106523297727108,0.04154408723115921,0.03621792420744896
1670350777297710800,8.8627109375,0.00852186419069767,0.04473978653550148,0.0426093190908432
1670350777307636000,8.872635986328126,0.0053261648863554,0.02876129187643528,0.04367455467581749
1670350777317561300,8.882561279296874,-0.0031956990715116262,-0.0053261648863554,0.0319569893181324
1670350777327486700,8.89248681640625,-0.0106523297727108,-0.02450035884976387,0.01704372838139534
1670350777337412000,8.902412109375,-0.0159784946590662,-0.04047885537147522,-0.0021304660476744175
1670350777347337200,8.912337158203124,-0.02556559257209301,-0.09800143539905548,-0.0106523297727108
1670350777357262600,8.9222626953125,-0.05965305119752884,-0.28441721200942993,0.11824086308479309
1670350777367188000,8.93218798828125,-0.12356702983379364,-0.1480673849582672,0.05645735189318657
1670350777377113300,8.94211328125,-0.06497921794652939,-0.03834838792681694,-0.01810896210372448
1670350777387038500,8.95203857421875,0.02450035884976387,0.0852186381816864,-0.05113118514418602
1670350777396963800,8.9619638671875,0.06924014538526535,0.16724158823490143,-0.05539211630821228
1670350777406889200,8.97188916015625,0.08308817446231842,0.20026381313800812,-0.01704372838139534
1670350777416814600,8.981814697265625,0.05965305119752884,0.11930610239505768,0.04900071769952774
1670350777426740000,8.991739990234375,0.01171756349503994,0.02450035884976387,0.07350108027458191
1670350777436665300,9.001665283203126,-0.004260932095348835,-0.01491326279938221,0.03621792420744896
1670350777446590700,9.0115908203125,-0.0021304660476744175,-0.02450035884976387,-0.02663082629442215
1670350777456516000,9.02151611328125,0.0010652330238372087,-0.02556559257209301,-0.06817491352558136
1670350777466441500,9.03144140625,-0.0106523297727108,-0.03621792420744896,-0.07563154399394989
1670350777476366800,9.041366943359375,-0.03302222490310669,-0.03515268862247467,-0.05645735189318657
1670350777486292200,9.051292236328125,-0.04047885537147522,-0.00852186419069767,-0.02663082629442215
1670350777496217600,9.061217529296876,-0.03302222490310669,0.01384802907705307,-0.0031956990715116262
1670350777506143000,9.07114306640625,-0.01917419396340847,0.012782796286046505,0.01704372838139534
1670350777516068000,9.081068115234375,-0.01384802907705307,0,0.03408745676279068
1670350777525993500,9.090993408203126,-0.01491326279938221,-0.0031956990715116262,0.03834838792681694
1670350777535918800,9.1009189453125,-0.009587096981704235,-0.012782796286046505,0.03089175745844841
1670350777545844200,9.11084423828125,-0.0021304660476744175,-0.03408745676279068,0.009587096981704235
1670350777555769600,9.12076953125,-0.004260932095348835,-0.05858781561255455,-0.01917419396340847
1670350777565695000,9.130695068359374,-0.009587096981704235,-0.06604444980621338,-0.03834838792681694
1670350777575620400,9.140620361328125,-0.01491326279938221,-0.05432688444852829,-0.04047885537147522
1670350777585545700,9.150545654296875,-0.01810896210372448,-0.03941362351179123,-0.02236989326775074
1670350777595471000,9.16047119140625,-0.02876129187643528,-0.02556559257209301,0.0053261648863554
1670350777605396500,9.170396484375,-0.04367455467581749,-0.0106523297727108,0.0319569893181324
1670350777615321900,9.18032177734375,-0.0532616525888443,0.00852186419069767,0.05645735189318657
1670350777625247200,9.190247314453124,-0.05432688444852829,0.009587096981704235,0.07030537724494934
1670350777635172600,9.200172607421875,-0.05113118514418602,-0.01171756349503994,0.07137060910463333
1670350777645098000,9.210097900390625,-0.05113118514418602,-0.04473978653550148,0.05432688444852829
1670350777655023400,9.2200234375,-0.05539211630821228,-0.08095771074295044,0.02343512699007988
1670350777664948700,9.22994873046875,-0.06071828305721283,-0.15658925473690033,-0.01171756349503994
1670350777674874000,9.2398740234375,-0.05645735189318657,-0.29187384247779846,-0.03621792420744896
1670350777684799500,9.249799560546874,-0.08308817446231842,-0.3738967776298523,-0.04473978653550148
1670350777694724900,9.259724853515625,-0.11397993564605713,-0.40159285068511963,-0.02236989326775074
1670350777704650200,9.269650146484375,-0.13315412402153015,-0.402658075094223,0.009587096981704235
1670350777714575600,9.27957568359375,-0.12463226169347763,-0.4058537781238556,0.03515268862247467
1670350777724501000,9.2895009765625,-0.0852186381816864,-0.39946237206459045,0.04900071769952774
1670350777734426000,9.299426025390625,-0.0319569893181324,-0.39839714765548706,0.04580501839518547
1670350777744351500,9.3093515625,0.02343512699007988,-0.40159285068511963,0.04154408723115921
1670350777754276900,9.31927685546875,0.07776200771331787,-0.40904948115348816,0.04793548583984375
1670350777764202200,9.3292021484375,0.12143656611442566,-0.39733192324638367,0.05965305119752884
1670350777774127600,9.339127685546876,0.1480673849582672,-0.3611139953136444,0.05432688444852829
1670350777784053000,9.349052978515624,0.16404588520526886,-0.32489606738090515,0.04154408723115921
1670350777793978400,9.358978271484375,0.1587197184562683,-0.2790910601615906,0.05006595328450203
1670350777803903700,9.36890380859375,0.11504516750574112,-0.21730753779411316,0.0958709716796875
1670350777813829000,9.3788291015625,0.04473978653550148,-0.21943800151348114,0.15658925473690033
1670350777823754500,9.38875439453125,0.01704372838139534,-0.27376487851142883,0.16724158823490143
1670350777833680000,9.398679931640626,0.03302222490310669,-0.31211328506469727,0.13315412402153015
1670350777843605200,9.408605224609374,0.04154408723115921,-0.29506954550743103,0.10226237028837204
1670350777853530600,9.418530517578125,0.03089175745844841,-0.24180789291858673,0.07776200771331787
1670350777863456000,9.4284560546875,0.02236989326775074,-0.2141118347644806,0.06178351491689682
1670350777873381400,9.43838134765625,0.01810896210372448,-0.21730753779411316,0.05113118514418602
1670350777883306800,9.448306640625,0.00852186419069767,-0.21091613173484802,0.03621792420744896
1670350777893232000,9.458232177734375,0.0010652330238372087,-0.2130466103553772,0.02663082629442215
1670350777903157200,9.4681572265625,-0.01384802907705307,-0.21943800151348114,0.01810896210372448
1670350777913082600,9.47808251953125,-0.03728315606713295,-0.22582940757274628,0.0159784946590662
1670350777923008000,9.488008056640625,-0.05113118514418602,-0.24180789291858673,0.01917419396340847
1670350777932933400,9.497933349609376,-0.06071828305721283,-0.22689463198184967,0.01704372838139534
1670350777942858500,9.5078583984375,-0.06178351491689682,-0.20452474057674408,0
1670350777952784000,9.517783935546875,-0.04687025398015976,-0.18748101592063904,-0.0159784946590662
1670350777962709200,9.527709228515626,-0.03089175745844841,-0.19493764638900757,-0.03728315606713295
1670350777972634600,9.537634521484375,-0.01917419396340847,-0.2226337045431137,-0.06924014538526535
1670350777982559700,9.547559814453125,-0.0159784946590662,-0.25139498710632324,-0.0958709716796875
1670350777992485000,9.557485107421876,-0.02876129187643528,-0.26204732060432434,-0.0958709716796875
1670350778002410500,9.567410400390624,-0.05219641700387001,-0.256721168756485,-0.06604444980621338
1670350778012335900,9.5773359375,-0.07882724702358246,-0.24926452338695526,-0.01704372838139534
1670350778022261000,9.587260986328126,-0.10226237028837204,-0.23967742919921875,0.04367455467581749
1670350778032186400,9.597186279296874,-0.11930610239505768,-0.22156846523284912,0.09906667470932007
1670350778042111700,9.60711181640625,-0.12995843589305878,-0.2034595012664795,0.12356702983379364
1670350778052037000,9.617037109375,-0.13102366030216217,-0.20772044360637665,0.11504516750574112
1670350778061962200,9.626962158203124,-0.1171756312251091,-0.19919857382774353,0.08628387749195099
1670350778071887600,9.6368876953125,-0.09480573982000351,-0.13528458774089813,0.05219641700387001
1670350778081813000,9.64681298828125,-0.08202294260263443,-0.05432688444852829,0.02769605815410614
1670350778091738400,9.65673828125,-0.08202294260263443,-0.02556559257209301,0.004260932095348835
1670350778101663500,9.66666357421875,-0.06817491352558136,0.01491326279938221,-0.01917419396340847
1670350778111588900,9.6765888671875,-0.05113118514418602,0.06497921794652939,-0.03941362351179123
1670350778121514200,9.68651416015625,-0.03089175745844841,0.08628387749195099,-0.05752258375287056
1670350778131439600,9.696439697265625,-0.0159784946590662,0.10226237028837204,-0.05965305119752884
1670350778141364700,9.70636474609375,-0.02663082629442215,0.11824086308479309,-0.02982652559876442
1670350778151290000,9.7162900390625,-0.05965305119752884,0.1171756312251091,0.007456631399691105
1670350778161215500,9.726215576171874,-0.08841434121131897,0.1278279572725296,0.0319569893181324
1670350778171140900,9.736140869140625,-0.09480573982000351,0.11078423261642456,0.01917419396340847
1670350778181066000,9.74606591796875,-0.06604444980621338,0.09480573982000351,-0.03302222490310669
1670350778190991400,9.755991455078124,-0.02236989326775074,0.10013190656900406,-0.07669677585363388
1670350778200916700,9.765916748046875,-0.0031956990715116262,0.10013190656900406,-0.10226237028837204
1670350778210842000,9.775842041015625,-0.01704372838139534,0.07243584841489792,-0.11504516750574112
1670350778220767200,9.785767333984374,-0.04473978653550148,0.0426093190908432,-0.11504516750574112
1670350778230692600,9.795692626953125,-0.07776200771331787,0.0319569893181324,-0.11078423261642456
1670350778240618000,9.805617919921875,-0.11078423261642456,0.05113118514418602,-0.09480573982000351
1670350778250543400,9.81554345703125,-0.1288931965827942,0.06284874677658081,-0.08202294260263443
1670350778260468500,9.825468505859375,-0.12250179797410965,0.09374050796031952,-0.08202294260263443
1670350778270393900,9.835393798828125,-0.10758853703737259,0.14167599380016327,-0.09480573982000351
1670350778280319200,9.8453193359375,-0.10545806586742401,0.18854624032974243,-0.11611039936542511
1670350778290244600,9.85524462890625,-0.12143656611442566,0.20665520429611206,-0.1480673849582672
1670350778300169700,9.865169677734375,-0.14274121820926666,0.2034595012664795,-0.18322007358074188
1670350778310095000,9.87509521484375,-0.17789392173290253,0.18322007358074188,-0.21624229848384857
1670350778320020500,9.8850205078125,-0.2247641682624817,0.15765449404716492,-0.23754696547985077
1670350778329945900,9.89494580078125,-0.2673735022544861,0.1395455300807953,-0.24180789291858673
1670350778339871200,9.904871337890626,-0.2865476906299591,0.12250179797410965,-0.22795987129211426
1670350778349796600,9.914796630859374,-0.27376487851142883,0.12037133425474167,-0.2034595012664795
1670350778359722000,9.924721923828125,-0.24074266850948334,0.13421936333179474,-0.17363297939300537
1670350778369647400,9.9346474609375,-0.2013290375471115,0.15339355170726776,-0.14380645751953125
1670350778379572700,9.94457275390625,-0.1704372763633728,0.1704372763633728,-0.1065233051776886
1670350778389498000,9.954498046875,-0.14593692123889923,0.1587197184562683,-0.06604444980621338
1670350778399423500,9.964423583984376,-0.14274121820926666,0.12143656611442566,-0.0319569893181324
1670350778409348900,9.974348876953124,-0.16511112451553345,0.06710968166589737,-0.004260932095348835
1670350778419274200,9.984274169921875,-0.19600287079811096,0.02450035884976387,0.02236989326775074
1670350778429199600,9.99419970703125,-0.21517707407474518,0.01491326279938221,0.04793548583984375
1670350778439125000,10.004125,-0.21091613173484802,0.02663082629442215,0.0639139786362648
1670350778449050400,10.01405029296875,-0.18748101592063904,0.04154408723115921,0.06710968166589737
1670350778458975500,10.0239755859375,-0.15126308798789978,0.05858781561255455,0.06284874677658081
1670350778468900900,10.03390087890625,-0.11397993564605713,0.09054480493068695,0.0532616525888443
1670350778478826200,10.043826171875,-0.07243584841489792,0.11504516750574112,0.03834838792681694
1670350778488751600,10.053751708984375,-0.02982652559876442,0.1171756312251091,0.02982652559876442
1670350778498677000,10.063677001953126,0.009587096981704235,0.10226237028837204,0.02450035884976387
1670350778508602400,10.073602294921875,0.03408745676279068,0.0852186381816864,0.02556559257209301
1670350778518527700,10.08352783203125,0.04047885537147522,0.08628387749195099,0.04367455467581749
1670350778528453000,10.093453125,0.03302222490310669,0.11611039936542511,0.06071828305721283
1670350778538378500,10.10337841796875,0.0319569893181324,0.1171756312251091,0.06817491352558136
1670350778548304000,10.113303955078125,0.02663082629442215,0.10439283400774002,0.06497921794652939
1670350778558229200,10.123229248046876,0.01171756349503994,0.08308817446231842,0.0745663121342659
1670350778568154600,10.133154541015625,-0.004260932095348835,0.04900071769952774,0.09054480493068695
1670350778578080000,10.143080078125,-0.0213046595454216,0.0319569893181324,0.09693620353937149
1670350778588005400,10.15300537109375,-0.03408745676279068,0.01491326279938221,0.09054480493068695
1670350778597930800,10.1629306640625,-0.04154408723115921,-0.0010652330238372087,0.06497921794652939
1670350778607856000,10.172856201171875,-0.03834838792681694,-0.0010652330238372087,0.04367455467581749
1670350778617781500,10.182781494140626,-0.02343512699007988,0.012782796286046505,0.02769605815410614
1670350778627707000,10.192706787109374,-0.01491326279938221,0.02023942768573761,0.0063913981430232525
1670350778637632300,10.20263232421875,-0.0159784946590662,0.0010652330238372087,-0.0010652330238372087
1670350778647557600,10.2125576171875,-0.02982652559876442,-0.04473978653550148,0.0159784946590662
1670350778657483000,10.22248291015625,-0.05219641700387001,-0.08095771074295044,0.04580501839518547
1670350778667408400,10.232408447265625,-0.06284874677658081,-0.07669677585363388,0.06924014538526535
1670350778677333500,10.24233349609375,-0.05432688444852829,-0.05006595328450203,0.0745663121342659
1670350778687259000,10.2522587890625,-0.03621792420744896,-0.03408745676279068,0.06284874677658081
1670350778697184300,10.262184326171875,-0.01917419396340847,-0.01491326279938221,0.0426093190908432
1670350778707109600,10.272109619140625,-0.01704372838139534,0.01171756349503994,0.02023942768573761
1670350778717035000,10.282034912109374,-0.01917419396340847,0.0031956990715116262,0.01171756349503994
1670350778726960400,10.29196044921875,-0.02663082629442215,-0.02876129187643528,0.01704372838139534
1670350778736885800,10.3018857421875,-0.04367455467581749,-0.05432688444852829,0.02556559257209301
1670350778746811100,10.31181103515625,-0.05645735189318657,-0.07243584841489792,0.03728315606713295
1670350778756736500,10.321736572265625,-0.06071828305721283,-0.07776200771331787,0.04900071769952774
1670350778766662000,10.331661865234375,-0.06604444980621338,-0.05645735189318657,0.06497921794652939
1670350778776587300,10.341587158203126,-0.06071828305721283,-0.04367455467581749,0.08628387749195099
1670350778786512600,10.3515126953125,-0.05006595328450203,-0.05219641700387001,0.11078423261642456
1670350778796438000,10.36143798828125,-0.04900071769952774,-0.04793548583984375,0.12356702983379364
1670350778806363400,10.37136328125,-0.05006595328450203,-0.03941362351179123,0.11397993564605713
1670350778816288800,10.381288818359375,-0.04154408723115921,-0.04367455467581749,0.08628387749195099
1670350778826214100,10.391214111328125,-0.02982652559876442,-0.04687025398015976,0.05432688444852829
1670350778836139500,10.401139404296876,-0.02982652559876442,-0.03089175745844841,0.02556559257209301
1670350778846065000,10.41106494140625,-0.03408745676279068,-0.02236989326775074,0.009587096981704235
1670350778855990300,10.420990234375,-0.03941362351179123,-0.04473978653550148,0.009587096981704235
1670350778865915600,10.43091552734375,-0.04900071769952774,-0.05432688444852829,0.012782796286046505
1670350778875841000,10.440841064453124,-0.05965305119752884,-0.04154408723115921,0.01384802907705307
1670350778885766400,10.450766357421875,-0.05645735189318657,-0.04367455467581749,0.01810896210372448
1670350778895691800,10.46069189453125,-0.04580501839518547,-0.0532616525888443,0.02982652559876442
1670350778905617000,10.470616943359374,-0.04900071769952774,-0.04687025398015976,0.04793548583984375
1670350778915542300,10.480542236328125,-0.0532616525888443,-0.03728315606713295,0.0745663121342659
1670350778925467600,10.490467529296875,-0.06284874677658081,-0.02450035884976387,0.09374050796031952
1670350778935393000,10.50039306640625,-0.06497921794652939,-0.02236989326775074,0.10332760214805603
1670350778945318400,10.510318359375,-0.0639139786362648,-0.01491326279938221,0.10119713842868805
1670350778955243800,10.520243896484375,-0.05219641700387001,0.0063913981430232525,0.07882724702358246
1670350778965169200,10.530169189453124,-0.03941362351179123,0.02556559257209301,0.03621792420744896
1670350778975094500,10.540094482421875,-0.0213046595454216,0.02982652559876442,-0.01810896210372448
1670350778985020000,10.55002001953125,-0.0106523297727108,0.00852186419069767,-0.05858781561255455
1670350778994945300,10.5599453125,-0.01704372838139534,-0.03515268862247467,-0.06071828305721283
1670350779004870700,10.56987060546875,-0.04047885537147522,-0.07882724702358246,-0.03515268862247467
1670350779014796000,10.579796142578125,-0.05858781561255455,-0.08628387749195099,-0.01171756349503994
1670350779024721400,10.589721435546876,-0.04900071769952774,-0.03621792420744896,-0.00852186419069767
1670350779034646800,10.599646728515625,-0.00852186419069767,0.05858781561255455,-0.0213046595454216
1670350779044572200,10.609572265625,0.04047885537147522,0.10545806586742401,-0.02556559257209301
1670350779054497300,10.619497314453126,0.05965305119752884,0.12250179797410965,-0.00852186419069767
1670350779064422700,10.629422607421875,0.05752258375287056,0.12569749355316162,0.02023942768573761
1670350779074348000,10.63934814453125,0.05645735189318657,0.1374150663614273,0.03941362351179123
1670350779084273400,10.6492734375,0.06284874677658081,0.1491326242685318,0.02023942768573761
1670350779094198500,10.659198486328124,0.08415340632200241,0.16191542148590088,-0.03941362351179123
1670350779104124000,10.6691240234375,0.11504516750574112,0.2130466103553772,-0.1278279572725296
1670350779114049300,10.67904931640625,0.13421936333179474,0.23009033501148224,-0.21837277710437775
1670350779123974700,10.688974609375,0.13208889961242676,0.15552401542663574,-0.256721168756485
1670350779133899800,10.698899658203125,0.09800143539905548,0.05006595328450203,-0.18854624032974243
1670350779143825200,10.7088251953125,0.03728315606713295,0.0106523297727108,-0.05858781561255455
1670350779153750500,10.71875048828125,-0.01171756349503994,0.0426093190908432,0.04793548583984375
1670350779163676000,10.728676025390625,0.0053261648863554,0.10439283400774002,0.10971900075674057
1670350779173601000,10.73860107421875,0.05006595328450203,0.1480673849582672,0.1587197184562683
1670350779183526400,10.7485263671875,0.06710968166589737,0.19387240707874298,0.2023942768573761
1670350779193451800,10.75845166015625,0.06924014538526535,0.23648172616958618,0.22582940757274628
1670350779203377200,10.768377197265625,0.07563154399394989,0.24926452338695526,0.19919857382774353
1670350779213302300,10.77830224609375,0.0852186381816864,0.23115555942058563,0.15339355170726776
1670350779223227600,10.7882275390625,0.07989247888326645,0.1906767040491104,0.12463226169347763
1670350779233153000,10.798153076171875,0.05752258375287056,0.15658925473690033,0.10332760214805603
1670350779243078400,10.808078369140626,0.03941362351179123,0.1395455300807953,0.06710968166589737
1670350779253003500,10.81800341796875,0.03089175745844841,0.11397993564605713,0.01810896210372448
1670350779262929000,10.827928955078125,0.02556559257209301,0.03728315606713295,-0.0213046595454216
1670350779272854300,10.837854248046876,0.009587096981704235,-0.012782796286046505,-0.02769605815410614
1670350779282779600,10.847779541015624,0,0.0159784946590662,-0.0106523297727108
1670350779292704800,10.857704833984375,0.0063913981430232525,0.04154408723115921,-0.004260932095348835
1670350779302630100,10.867630126953125,0.0159784946590662,0.0213046595454216,-0.0106523297727108
1670350779312555500,10.877555419921874,0.0031956990715116262,-0.0031956990715116262,-0.01171756349503994
1670350779322481000,10.88748095703125,-0.009587096981704235,-0.00852186419069767,-0.0053261648863554
1670350779332406000,10.897406005859375,-0.01491326279938221,-0.007456631399691105,-0.00852186419069767
1670350779342331400,10.907331298828124,-0.012782796286046505,-0.009587096981704235,-0.02023942768573761
1670350779352256800,10.9172568359375,-0.0031956990715116262,-0.01704372838139534,-0.02982652559876442
1670350779362182100,10.92718212890625,-0.0031956990715116262,-0.02236989326775074,-0.02663082629442215
1670350779372107500,10.937107421875,-0.01384802907705307,-0.07243584841489792,0.01810896210372448
1670350779382033000,10.947032958984375,-0.03728315606713295,-0.06817491352558136,0.012782796286046505
1670350779391958300,10.956958251953125,-0.03728315606713295,-0.09267527610063553,0.02663082629442215
1670350779401883600,10.966883544921876,-0.03728315606713295,-0.12250179797410965,0.10119713842868805
1670350779411809000,10.97680908203125,-0.05006595328450203,-0.07243584841489792,0.1384802907705307
1670350779421734400,10.986734375,-0.03728315606713295,0.01491326279938221,0.11504516750574112
1670350779431659800,10.99665966796875,-0.007456631399691105,0.10758853703737259,0.02769605815410614
1670350779441585200,11.006585205078125,0.03941362351179123,0.1704372763633728,-0.05432688444852829
1670350779451510500,11.016510498046875,0.08202294260263443,0.2247641682624817,-0.07776200771331787
1670350779461435600,11.026435546875,0.10439283400774002,0.2354165017604828,-0.0639139786362648
1670350779471361000,11.036361083984374,0.11184946447610855,0.18428531289100647,-0.03941362351179123
1670350779481286400,11.046286376953125,0.10865376889705658,0.1608501821756363,-0.05645735189318657
1670350779491211800,11.056211669921876,0.10971900075674057,0.18322007358074188,-0.11078423261642456
1670350779501137200,11.06613720703125,0.11824086308479309,0.2023942768573761,-0.15339355170726776
1670350779511062500,11.0760625,0.12569749355316162,0.21624229848384857,-0.13528458774089813
1670350779520988000,11.08598779296875,0.1267627328634262,0.22582940757274628,-0.05432688444852829
1670350779530913300,11.095913330078124,0.10758853703737259,0.2226337045431137,0.02663082629442215
1670350779540838700,11.105838623046875,0.09800143539905548,0.2119813710451126,0.09693620353937149
1670350779550764000,11.115763916015625,0.09161003679037094,0.15445879101753235,0.21091613173484802
1670350779560689400,11.125689453125,0.0852186381816864,0.04154408723115921,0.13528458774089813
1670350779570614800,11.13561474609375,0.05965305119752884,0.02023942768573761,0.0106523297727108
1670350779580540200,11.1455400390625,0.05006595328450203,0.06924014538526535,-0.03941362351179123
1670350779590465500,11.155465576171874,0.05752258375287056,0.07243584841489792,-0.03941362351179123
1670350779600391000,11.165390869140625,0.05219641700387001,0.03089175745844841,-0.02023942768573761
1670350779610316300,11.17531640625,0.01704372838139534,-0.01384802907705307,0.0106523297727108
1670350779620241700,11.18524169921875,-0.03089175745844841,-0.01171756349503994,0.009587096981704235
1670350779630167000,11.1951669921875,-0.05006595328450203,0.0063913981430232525,-0.04687025398015976
1670350779640092400,11.205092529296875,-0.03408745676279068,-0.0063913981430232525,-0.11078423261642456
1670350779650017800,11.215017822265626,-0.009587096981704235,-0.03302222490310669,-0.10758853703737259
1670350779659943200,11.224943115234375,-0.01810896210372448,-0.06497921794652939,-0.03834838792681694
1670350779669868500,11.23486865234375,-0.05539211630821228,-0.1704372763633728,0.06071828305721283
1670350779679793700,11.244793701171876,-0.1171756312251091,-0.3930709958076477,0.18641577661037445
1670350779689719000,11.254718994140624,-0.20985090732574463,-0.40798425674438477,0.3078523576259613
1670350779699644400,11.26464453125,-0.23861220479011536,-0.13634982705116272,0.19493764638900757
1670350779709569800,11.27456982421875,-0.14700216054916382,-0.05432688444852829,0.08628387749195099
1670350779719495200,11.2844951171875,-0.06178351491689682,0.012782796286046505,0.01171756349503994
1670350779729420500,11.294420654296875,-0.02769605815410614,0.04047885537147522,0.04580501839518547
1670350779739346000,11.304345947265626,-0.05219641700387001,0.03728315606713295,0.1288931965827942
1670350779749271300,11.314271240234374,-0.09480573982000351,0.01491326279938221,0.1587197184562683
1670350779759196700,11.32419677734375,-0.12143656611442566,-0.03834838792681694,0.1171756312251091
1670350779769122000,11.3341220703125,-0.14700216054916382,-0.07882724702358246,0.03515268862247467
1670350779779047400,11.34404736328125,-0.1800243854522705,-0.10226237028837204,-0.03834838792681694
1670350779788972800,11.353972900390625,-0.22795987129211426,-0.16191542148590088,-0.0532616525888443
1670350779798898200,11.363898193359375,-0.28015628457069397,-0.2450035959482193,-0.004260932095348835
1670350779808823600,11.373823486328124,-0.31211328506469727,-0.28228676319122314,0.0745663121342659
1670350779818749000,11.3837490234375,-0.3206351399421692,-0.27163442969322205,0.12463226169347763
1670350779828674300,11.39367431640625,-0.299330472946167,-0.2684387266635895,0.1288931965827942
1670350779838599700,11.403599609375,-0.25991687178611755,-0.2439383566379547,0.10013190656900406
1670350779848525000,11.413525146484375,-0.2130466103553772,-0.18854624032974243,0.04793548583984375
1670350779858450400,11.423450439453125,-0.1597849577665329,-0.14061075448989868,0.0053261648863554
1670350779868375800,11.433375732421876,-0.10332760214805603,-0.10013190656900406,-0.01917419396340847
1670350779878301200,11.44330126953125,-0.06071828305721283,-0.04473978653550148,-0.03515268862247467
1670350779888226600,11.4532265625,-0.0319569893181324,0.0021304660476744175,-0.05113118514418602
1670350779898152000,11.46315185546875,-0.0031956990715116262,0.05006595328450203,-0.05645735189318657
1670350779908077000,11.4730771484375,0.007456631399691105,0.04900071769952774,-0.03941362351179123
1670350779918002400,11.48300244140625,-0.0063913981430232525,0.15552401542663574,0.08628387749195099
1670350779927927800,11.492927734375,-0.09693620353937149,0.15339355170726776,0.2141118347644806
1670350779937853200,11.502853271484375,-0.10545806586742401,-0.02982652559876442,0.07882724702358246
1670350779947778600,11.512778564453125,-0.03089175745844841,-0.12250179797410965,-0.01384802907705307
1670350779957704000,11.522703857421876,-0.01384802907705307,-0.14167599380016327,-0.0063913981430232525
1670350779967629300,11.53262939453125,-0.0426093190908432,-0.1374150663614273,-0.0063913981430232525
1670350779977554700,11.5425546875,-0.04900071769952774,-0.18428531289100647,-0.01491326279938221
1670350779987480000,11.55247998046875,-0.07669677585363388,-0.21837277710437775,0.02556559257209301
1670350779997405400,11.562405517578124,-0.12463226169347763,-0.20452474057674408,0.13208889961242676
1670350780007330800,11.572330810546875,-0.1395455300807953,-0.19493764638900757,0.20558997988700867
1670350780017256200,11.582256103515626,-0.1171756312251091,-0.20985090732574463,0.1821548491716385
1670350780027181600,11.592181640625,-0.08415340632200241,-0.191741943359375,0.10226237028837204
1670350780037107000,11.60210693359375,-0.05965305119752884,-0.13102366030216217,0.0213046595454216
1670350780047032300,11.6120322265625,-0.04580501839518547,-0.0745663121342659,-0.0319569893181324
1670350780056957700,11.621957763671874,-0.04367455467581749,-0.04793548583984375,-0.04900071769952774
1670350780066883000,11.631883056640625,-0.05219641700387001,-0.0639139786362648,-0.03408745676279068
1670350780076808400,11.641808349609375,-0.06604444980621338,-0.0745663121342659,-0.0010652330238372087
1670350780086733800,11.65173388671875,-0.08734910935163498,-0.07137060910463333,0.01491326279938221
1670350780096659200,11.6616591796875,-0.10013190656900406,-0.06497921794652939,-0.0031956990715116262
1670350780106584600,11.67158447265625,-0.10865376889705658,-0.10119713842868805,-0.03834838792681694
1670350780116510000,11.681510009765624,-0.12143656611442566,-0.17469821870326996,-0.03941362351179123
1670350780126435000,11.69143505859375,-0.13528458774089813,-0.23754696547985077,0.0063913981430232525
1670350780136360400,11.7013603515625,-0.15126308798789978,-0.27269965410232544,0.05113118514418602
1670350780146285800,11.711285888671876,-0.16191542148590088,-0.31424373388290405,0.08841434121131897
1670350780156211200,11.721211181640625,-0.1800243854522705,-0.30572187900543213,0.12569749355316162
1670350780166136600,11.731136474609375,-0.17256775498390198,-0.18961147964000702,0.02876129187643528
1670350780176062000,11.74106201171875,-0.10119713842868805,-0.09800143539905548,-0.02663082629442215
1670350780185987300,11.7509873046875,-0.03515268862247467,0.01704372838139534,-0.05113118514418602
1670350780195912700,11.76091259765625,0.01704372838139534,0.10971900075674057,-0.05858781561255455
1670350780205838000,11.770838134765626,0.0532616525888443,0.17256775498390198,-0.05858781561255455
1670350780215763500,11.780763427734374,0.09374050796031952,0.2332860380411148,-0.05539211630821228
1670350780225688800,11.790688720703125,0.1171756312251091,0.24287313222885132,-0.04473978653550148
1670350780235614200,11.8006142578125,0.10013190656900406,0.20026381313800812,-0.0639139786362648
1670350780245539600,11.81053955078125,0.07030537724494934,0.1384802907705307,-0.1065233051776886
1670350780255465000,11.82046484375,0.04793548583984375,0.08841434121131897,-0.15658925473690033
1670350780265390300,11.830390380859376,0.04047885537147522,0.08628387749195099,-0.20558997988700867
1670350780275315700,11.840315673828124,0.04473978653550148,0.13421936333179474,-0.2545906901359558
1670350780285241000,11.850240966796875,0.04687025398015976,0.16830681264400482,-0.29187384247779846
1670350780295166500,11.86016650390625,0.07669677585363388,0.1608501821756363,-0.26098209619522095
1670350780305091800,11.870091796875,0.10119713842868805,0.11611039936542511,-0.1587197184562683
1670350780315017200,11.880017333984375,0.08947957307100296,0.0852186381816864,-0.04580501839518547
1670350780324942600,11.889942626953125,0.06071828305721283,0.0958709716796875,0.02556559257209301
1670350780334868000,11.899867919921874,0.05006595328450203,0.11291470378637314,0.02876129187643528
1670350780344793000,11.90979296875,0.06071828305721283,0.13528458774089813,-0.004260932095348835
1670350780354718500,11.919718505859375,0.05432688444852829,0.16511112451553345,-0.0021304660476744175
1670350780364643800,11.929643798828126,0.01704372838139534,0.05113118514418602,-0.04793548583984375
1670350780374569200,11.9395693359375,0.007456631399691105,-0.04900071769952774,-0.05432688444852829
1670350780384494600,11.94949462890625,0,-0.04473978653550148,-0.02236989326775074
1670350780394420000,11.959419921875,-0.02236989326775074,-0.02556559257209301,-0.0021304660476744175
1670350780404345300,11.969345458984375,-0.03515268862247467,-0.05113118514418602,0.0159784946590662
1670350780414270700,11.979270751953125,-0.04793548583984375,-0.11184946447610855,0.04580501839518547
1670350780424196000,11.989196044921876,-0.07243584841489792,-0.1501978635787964,0.09906667470932007
1670350780434121500,11.99912158203125,-0.09480573982000351,-0.14487169682979584,0.14487169682979584
1670350780444046800,12.009046875,-0.10119713842868805,-0.10119713842868805,0.16617634892463684
1670350780453972200,12.01897216796875,-0.08308817446231842,-0.0319569893181324,0.15232832729816437
1670350780463897600,12.028897705078125,-0.05858781561255455,-0.0010652330238372087,0.11504516750574112
1670350780473823000,12.038822998046875,-0.0426093190908432,-0.03302222490310669,0.08415340632200241
1670350780483748400,12.048748291015626,-0.04473978653550148,-0.07243584841489792,0.07137060910463333
1670350780493673700,12.058673828125,-0.05965305119752884,-0.08628387749195099,0.05965305119752884
1670350780503599000,12.06859912109375,-0.06924014538526535,-0.09267527610063553,0.03089175745844841
1670350780513524500,12.0785244140625,-0.06817491352558136,-0.07669677585363388,-0.01491326279938221
1670350780523449900,12.088449951171874,-0.06497921794652939,-0.03728315606713295,-0.03621792420744896
1670350780533375200,12.098375244140625,-0.0745663121342659,-0.0213046595454216,0.04367455467581749
1670350780543300600,12.108300537109375,-0.19493764638900757,0.01917419396340847,0.3217003643512726
1670350780553226000,12.11822607421875,-0.26204732060432434,-0.1374150663614273,0.2961347699165344
1670350780563151400,12.1281513671875,-0.20558997988700867,-0.16298064589500427,0.20558997988700867
1670350780573076500,12.138076416015625,-0.15658925473690033,-0.16191542148590088,0.14061075448989868
1670350780583001900,12.148001953125,-0.1267627328634262,-0.14061075448989868,0.06178351491689682
1670350780592927200,12.15792724609375,-0.10013190656900406,-0.2119813710451126,-0.05219641700387001
1670350780602852600,12.1678525390625,-0.06924014538526535,-0.2982652485370636,-0.14380645751953125
1670350780612778000,12.177778076171874,-0.07989247888326645,-0.33661362528800964,-0.19919857382774353
1670350780622703400,12.187703369140625,-0.12995843589305878,-0.30465665459632874,-0.15232832729816437
1670350780632628700,12.197628662109375,-0.19706811010837555,-0.26098209619522095,0.01171756349503994
1670350780642554000,12.20755419921875,-0.24713405966758728,-0.252460241317749,0.12356702983379364
1670350780652479500,12.2174794921875,-0.256721168756485,-0.2460688352584839,0.1065233051776886
1670350780662404900,12.22740478515625,-0.22156846523284912,-0.18535055220127106,0.0213046595454216
1670350780672330200,12.237330322265626,-0.16191542148590088,-0.09374050796031952,-0.05645735189318657
1670350780682255600,12.247255615234375,-0.10865376889705658,-0.04473978653550148,-0.09480573982000351
1670350780692181000,12.257180908203125,-0.09054480493068695,-0.07137060910463333,-0.09374050796031952
1670350780702106400,12.2671064453125,-0.0958709716796875,-0.1278279572725296,-0.06604444980621338
1670350780712031700,12.27703173828125,-0.10545806586742401,-0.1374150663614273,-0.02023942768573761
1670350780721957000,12.28695703125,-0.0958709716796875,-0.11504516750574112,0.0021304660476744175
1670350780731882500,12.296882568359376,-0.04687025398015976,-0.08415340632200241,-0.04047885537147522
1670350780741807900,12.306807861328124,0.0053261648863554,-0.0031956990715116262,-0.07989247888326645
1670350780751733200,12.316733154296875,0.02769605815410614,0.06817491352558136,-0.09906667470932007
1670350780761658600,12.32665869140625,0.03302222490310669,0.08841434121131897,-0.07669677585363388
1670350780771584000,12.336583984375,0.02876129187643528,0.05539211630821228,-0.0319569893181324
1670350780781509400,12.34650927734375,0.01384802907705307,0.0031956990715116262,0.009587096981704235
1670350780791434500,12.3564345703125,-0.007456631399691105,-0.01704372838139534,0.04687025398015976
1670350780801360000,12.36635986328125,-0.01704372838139534,0,0.07137060910463333
1670350780811285200,12.37628515625,-0.01491326279938221,0.0106523297727108,0.06817491352558136
1670350780821210600,12.386210693359375,-0.0106523297727108,0.0159784946590662,0.04473978653550148
1670350780831136000,12.396135986328124,-0.009587096981704235,0.04580501839518547,0.0159784946590662
1670350780841061400,12.406061279296875,-0.0053261648863554,0.06178351491689682,-0.01171756349503994
1670350780850986800,12.41598681640625,-0.0010652330238372087,0.05539211630821228,-0.02450035884976387
1670350780860912000,12.425912109375,-0.0021304660476744175,0.06178351491689682,-0.01917419396340847
1670350780870837500,12.43583740234375,-0.0053261648863554,0.06817491352558136,-0.009587096981704235
1670350780880763000,12.445762939453125,-0.0063913981430232525,0.06604444980621338,-0.0159784946590662
1670350780890688300,12.455688232421876,-0.0010652330238372087,0.07776200771331787,-0.02343512699007988
1670350780900613600,12.465613525390625,0.0106523297727108,0.09054480493068695,-0.01384802907705307
1670350780910539000,12.4755390625,0.0213046595454216,0.08095771074295044,0.007456631399691105
1670350780920464400,12.48546435546875,0.02236989326775074,0.07243584841489792,0.0213046595454216
1670350780930389800,12.4953896484375,0.0213046595454216,0.07137060910463333,0.02236989326775074
1670350780940315100,12.505315185546875,0.03408745676279068,0.07989247888326645,0.01384802907705307
1670350780950240500,12.515240478515626,0.04900071769952774,0.09054480493068695,0.0021304660476744175
1670350780960166000,12.525165771484374,0.05432688444852829,0.0958709716796875,-0.01810896210372448
1670350780970091300,12.53509130859375,0.04687025398015976,0.09267527610063553,-0.03941362351179123
1670350780980016600,12.5450166015625,0.03834838792681694,0.08628387749195099,-0.05752258375287056
1670350780989942000,12.55494189453125,0.03089175745844841,0.08095771074295044,-0.07030537724494934
1670350780999867400,12.564867431640625,0.02663082629442215,0.07776200771331787,-0.07030537724494934
1670350781009792800,12.574792724609376,0.02556559257209301,0.07137060910463333,-0.05858781561255455
