time,seconds_elapsed,z,y,x
1670350768797098800,0.3620986328125,-0.004394086077809334,0.020772043615579605,-0.02916075475513935
1670350768807278000,0.372278076171875,-0.0011983871227130294,0.0005326165119186044,-0.03768261894583702
1670350768817278000,0.38227783203125,-0.004394086077809334,-0.030359141528606415,-0.02916075475513935
1670350768827444200,0.3924443359375,-0.012915950268507004,-0.046337638050317764,-0.01957365684211254
1670350768837444000,0.402444091796875,-0.011850717477500439,-0.041011471301317215,-0.01637795753777027
1670350768847597600,0.41259765625,-0.004394086077809334,-0.018641578033566475,-0.02170412242412567
1670350768857597700,0.42259765625,0.0030625448562204838,0.0037283156998455524,-0.02703028731048107
1670350768867739000,0.43273876953125,0.004127778112888336,0.015445878729224205,-0.03129122033715248
1670350768877739000,0.442739013671875,0.004127778112888336,0.023967742919921875,-0.03342168778181076
1670350768887868700,0.45286865234375,-0.0001331541279796511,0.025032976642251015,-0.03448691964149475
1670350768897868800,0.462868896484375,-0.00226362026296556,0.020772043615579605,-0.03768261894583702
1670350768907987200,0.4729873046875,-0.0033288532868027687,0.015445878729224205,-0.039813082665205
1670350768917987300,0.4829873046875,-0.0011983871227130294,0.017576344311237335,-0.04833494871854782
1670350768928095000,0.493094970703125,0.004127778112888336,0.012250179424881935,-0.05472634732723236
1670350768938095000,0.50309521484375,0.005193010903894901,0.00585878174751997,-0.05685681104660034
1670350768948192800,0.51319287109375,0.006258244160562754,0.006924014538526535,-0.05685681104660034
1670350768958377000,0.523376953125,0.0030625448562204838,0.006924014538526535,-0.05579157918691635
1670350768968377000,0.533377197265625,-0.00226362026296556,0.0047935484908521175,-0.05366111174225807
1670350768978454300,0.543454345703125,-0.007589785382151604,0.010119713842868805,-0.05153064802289009
1670350768988599600,0.553599609375,-0.006524552125483751,0.021837277337908745,-0.05579157918691635
1670350768998599700,0.563599609375,-0.012915950268507004,0.00585878174751997,-0.0717700719833374
1670350769008659200,0.5736591796875,-0.015046416781842709,-0.0026630824431777,-0.0824224054813385
1670350769018770200,0.583770263671875,-0.010785484686493874,0.00905448105186224,-0.0930747389793396
1670350769028923400,0.59392333984375,0.0009320789249613881,0.028228675946593285,-0.09840089827775955
1670350769039108000,0.604108154296875,0.009453942999243736,0.033554840832948685,-0.0930747389793396
1670350769049108200,0.614108154296875,0.004127778112888336,0.031424373388290405,-0.08135717362165451
1670350769059132200,0.624132080078125,-0.013981183059513569,0.026098208501935005,-0.0717700719833374
1670350769069175600,0.634175537109375,-0.026763979345560074,0.015445878729224205,-0.06644391268491745
1670350769079232800,0.644232666015625,-0.03528584539890289,0.019706811755895615,-0.06750914454460144
1670350769089297700,0.654297607421875,-0.037416309118270874,0.022902509197592735,-0.07816147059202194
1670350769099364600,0.664364501953125,-0.03528584539890289,0.018641578033566475,-0.08455286920070648
1670350769109338600,0.674338623046875,-0.036351077258586884,0.0015978495357558131,-0.08455286920070648
1670350769119263700,0.684263671875,-0.03848154470324516,-0.018641578033566475,-0.0717700719833374
1670350769129189000,0.694189208984375,-0.040612008422613144,-0.027163442224264145,-0.05579157918691635
1670350769139114200,0.7041142578125,-0.03954677656292915,-0.017576344311237335,-0.04194355010986328
1670350769149039600,0.71403955078125,-0.027829213067889214,0.012250179424881935,-0.02916075475513935
1670350769158965000,0.723965087890625,-0.011850717477500439,0.037815771996974945,-0.01744319126009941
1670350769168890000,0.73389013671875,-0.00226362026296556,0.039946239441633224,-0.004660394508391619
1670350769178815500,0.7438154296875,0.001997311832383275,0.028228675946593285,0.012383334338665009
1670350769188740600,0.75374072265625,0.001997311832383275,0.017576344311237335,0.02410089783370495
1670350769198666000,0.763666015625,0.005193010903894901,0.01118494663387537,0.02410089783370495
1670350769208591000,0.773591064453125,0.005193010903894901,0.0015978495357558131,0.015579032711684704
1670350769218516500,0.7835166015625,0.001997311832383275,-0.0026630824431777,0.007057168986648321
1670350769228441600,0.793441650390625,-0.0011983871227130294,0.0026630824431777,-0.0014646954368799925
1670350769238367000,0.803366943359375,-0.0001331541279796511,0.006924014538526535,-0.007856093347072601
1670350769248292400,0.813292236328125,0.0009320789249613881,0.01118494663387537,-0.005725627299398184
1670350769258217500,0.823217529296875,0.0009320789249613881,0.0079892473295331,0.000665770610794425
1670350769268142800,0.833142822265625,0.0030625448562204838,0.0037283156998455524,0.008122402243316174
1670350769278068000,0.84306787109375,0.005193010903894901,0.0015978495357558131,0.008122402243316174
1670350769287993300,0.852993408203125,0.007323476951569319,0.016511112451553345,-0.0003994623839389533
1670350769297918500,0.86291845703125,0.010519175790250301,0.048468101769685745,-0.01637795753777027
1670350769307843800,0.87284375,0.015845341607928276,0.062316130846738815,-0.03235645219683647
1670350769317769000,0.88276904296875,0.01704372838139534,0.062316130846738815,-0.04620448127388954
1670350769327694300,0.8926943359375,0.013714875094592571,0.062316130846738815,-0.05472634732723236
1670350769337619500,0.902619384765625,0.01704372838139534,0.07296846061944962,-0.06324820965528488
1670350769347544800,0.912544921875,0.0319569893181324,0.07296846061944962,-0.07496577501296997
1670350769357470200,0.92247021484375,0.0426093190908432,0.0644465982913971,-0.08455286920070648
1670350769367395300,0.932395263671875,0.05006595328450203,0.059120431542396545,-0.08135717362165451
1670350769377320700,0.94232080078125,0.05006595328450203,0.053794268518686295,-0.07496577501296997
1670350769387245800,0.952245849609375,0.05219641700387001,0.055924732238054276,-0.0717700719833374
1670350769397171200,0.962171142578125,0.05965305119752884,0.06551183015108109,-0.07816147059202194
1670350769407096300,0.972096435546875,0.06604444980621338,0.07190322875976562,-0.09200949966907501
1670350769417021700,0.982021728515625,0.07030537724494934,0.0750989317893982,-0.09946613013744354
1670350769426946800,0.99194677734375,0.07350108027458191,0.0750989317893982,-0.09840089827775955
1670350769436872200,1.0018720703125,0.07350108027458191,0.0644465982913971,-0.09840089827775955
1670350769446797300,1.01179736328125,0.0639139786362648,0.059120431542396545,-0.09840089827775955
1670350769456722700,1.02172265625,0.06284874677658081,0.0750989317893982,-0.09733566641807556
1670350769466648000,1.03164794921875,0.07989247888326645,0.08788172155618668,-0.09733566641807556
1670350769476573200,1.0415732421875,0.1065233051776886,0.09427312016487122,-0.10159660130739212
1670350769486498600,1.05149853515625,0.11930610239505768,0.09427312016487122,-0.11118369549512863
1670350769496423700,1.061423583984375,0.1065233051776886,0.1059906855225563,-0.1143793985247612
1670350769506349000,1.07134912109375,0.07243584841489792,0.1390129029750824,-0.09200949966907501
1670350769516274200,1.081274169921875,0.02876129187643528,0.15073047578334808,-0.06324820965528488
1670350769526199600,1.091199462890625,-0.008655018173158169,0.10918638855218887,-0.03448691964149475
1670350769536124700,1.101124755859375,-0.031024912372231483,0.06764229387044907,-0.00359516148455441
1670350769546050000,1.111050048828125,-0.058720968663692474,0.026098208501935005,0.013448567129671574
1670350769555975400,1.120975341796875,-0.09387365728616714,0.015445878729224205,0.02729659713804722
1670350769565900500,1.130900634765625,-0.1205044835805893,0.025032976642251015,0.04860125854611397
1670350769575826000,1.140825927734375,-0.13222205638885498,0.01118494663387537,0.06244928762316704
1670350769585751000,1.1507509765625,-0.1407439112663269,0.0005326165119186044,0.05712312087416649
1670350769595676400,1.160676513671875,-0.1620485782623291,0.01118494663387537,0.03368799388408661
1670350769605601500,1.1706015625,-0.17909230291843414,0.0047935484908521175,0.02197043038904667
1670350769615527000,1.18052685546875,-0.1844184696674347,-0.026098208501935005,0.011318100616335869
1670350769625452000,1.1904521484375,-0.17909230291843414,-0.037815771996974945,-0.007856093347072601
1670350769635377400,1.20037744140625,-0.15991811454296112,-0.01118494663387537,-0.02703028731048107
1670350769645302500,1.210302490234375,-0.12796111404895782,0.036750540137290955,-0.03661738336086273
1670350769655228000,1.220227783203125,-0.10346075892448425,0.08042509108781815,-0.0238345880061388
1670350769665153300,1.2301533203125,-0.09387365728616714,0.0740336924791336,0.009187635034322739
1670350769675078400,1.240078369140625,-0.09493889659643173,0.038881003856658936,0.05392742156982422
1670350769685003800,1.250003662109375,-0.09706936031579971,0.023967742919921875,0.09227581322193146
1670350769694929000,1.259928955078125,-0.09067796170711517,0.028228675946593285,0.10079767554998398
1670350769704854300,1.269854248046875,-0.07469946891069412,0.025032976642251015,0.0773625448346138
1670350769714779400,1.279779296875,-0.05232957378029823,0.019706811755895615,0.04114462435245514
1670350769724704800,1.289704833984375,-0.03954677656292915,0.026098208501935005,0.009187635034322739
1670350769734630000,1.2996298828125,-0.029959678649902344,0.021837277337908745,-0.008921326138079166
1670350769744555300,1.30955517578125,-0.023568280041217804,-0.0015978495357558131,-0.004660394508391619
1670350769754480400,1.31948046875,-0.017176883295178413,-0.01118494663387537,0.005991935729980469
1670350769764405800,1.32940576171875,-0.005459319334477186,-0.012250179424881935,0.005991935729980469
1670350769774331100,1.3393310546875,0.001997311832383275,-0.00905448105186224,-0.005725627299398184
1670350769784256300,1.34925634765625,0.0030625448562204838,0.0026630824431777,-0.013182258233428001
1670350769794181600,1.359181640625,-0.00226362026296556,0.019706811755895615,-0.01637795753777027
1670350769804106800,1.369106689453125,-0.009720250964164734,0.019706811755895615,-0.0185084231197834
1670350769814032100,1.3790322265625,-0.019307348877191544,0.006924014538526535,-0.014247491955757141
1670350769823957200,1.388957275390625,-0.027829213067889214,-0.0015978495357558131,-0.0014646954368799925
1670350769833882600,1.398882568359375,-0.03528584539890289,-0.0026630824431777,0.01664426550269127
1670350769843807700,1.408807861328125,-0.04274247586727142,0.00585878174751997,0.02729659713804722
1670350769853733000,1.418733154296875,-0.044872939586639404,0.020772043615579605,0.03049229457974434
1670350769863658500,1.428658447265625,-0.047003407031297684,0.038881003856658936,0.02729659713804722
1670350769873583600,1.43858349609375,-0.048068638890981674,0.032489608973264694,0.02729659713804722
1670350769883509000,1.448509033203125,-0.05659050494432449,0.0037283156998455524,0.03155753016471863
1670350769893434000,1.45843408203125,-0.06830807030200958,-0.025032976642251015,0.03688369318842888
1670350769903359500,1.468359375,-0.061916667968034744,-0.018641578033566475,0.04007939249277115
1670350769913284600,1.47828466796875,-0.040612008422613144,0.006924014538526535,0.02623136341571808
1670350769923210000,1.4882099609375,-0.022503048181533813,0.025032976642251015,0.004926702938973904
1670350769933135000,1.498135009765625,-0.011850717477500439,0.038881003856658936,-0.011051792651414871
1670350769943060500,1.508060546875,-0.008655018173158169,0.044207170605659485,-0.014247491955757141
1670350769952985600,1.517985595703125,-0.011850717477500439,0.034620072692632675,-0.013182258233428001
1670350769962911000,1.527910888671875,-0.017176883295178413,0.019706811755895615,-0.008921326138079166
1670350769972836400,1.53783642578125,-0.019307348877191544,0.0047935484908521175,-0.012117025442421436
1670350769982761500,1.547761474609375,-0.021437814459204674,-0.010119713842868805,-0.02170412242412567
1670350769992686800,1.557686767578125,-0.022503048181533813,-0.025032976642251015,-0.02809552103281021
1670350770002612000,1.567612060546875,-0.025698747485876083,-0.029293907806277275,-0.02809552103281021
1670350770012537300,1.577537353515625,-0.031024912372231483,-0.020772043615579605,-0.02276935614645481
1670350770022462500,1.58746240234375,-0.034220609813928604,-0.0079892473295331,-0.014247491955757141
1670350770032387800,1.597387939453125,-0.03528584539890289,-0.0037283156998455524,-0.00359516148455441
1670350770042313000,1.60731298828125,-0.03209014609456062,-0.0026630824431777,0.009187635034322739
1670350770052238300,1.61723828125,-0.031024912372231483,-0.0005326165119186044,0.01664426550269127
1670350770062163500,1.62716357421875,-0.029959678649902344,0.0037283156998455524,0.01770949922502041
1670350770072088800,1.6370888671875,-0.028894444927573204,0.0079892473295331,0.010252867825329304
1670350770082014200,1.64701416015625,-0.026763979345560074,0.00585878174751997,-0.0003994623839389533
1670350770091939600,1.656939697265625,-0.022503048181533813,0.012250179424881935,-0.00359516148455441
1670350770101864700,1.66686474609375,-0.025698747485876083,0.010119713842868805,-0.009986559860408306
1670350770111790000,1.6767900390625,-0.033155377954244614,0.0026630824431777,-0.02276935614645481
1670350770121715500,1.686715576171875,-0.03209014609456062,-0.0037283156998455524,-0.03235645219683647
1670350770131640800,1.696640869140625,-0.027829213067889214,-0.0079892473295331,-0.03874785080552101
1670350770141566000,1.70656591796875,-0.028894444927573204,-0.0037283156998455524,-0.03768261894583702
1670350770151491300,1.7164912109375,-0.031024912372231483,0.00585878174751997,-0.03555215150117874
1670350770161416700,1.726416748046875,-0.029959678649902344,0.017576344311237335,-0.03022598661482334
1670350770171342000,1.736342041015625,-0.031024912372231483,0.027163442224264145,-0.02916075475513935
1670350770181267500,1.746267333984375,-0.033155377954244614,0.028228675946593285,-0.03342168778181076
1670350770191192600,1.756192626953125,-0.036351077258586884,0.01118494663387537,-0.039813082665205
1670350770201118000,1.766117919921875,-0.03954677656292915,0.0005326165119186044,-0.04726971685886383
1670350770211043300,1.776043212890625,-0.043807707726955414,0.006924014538526535,-0.05685681104660034
1670350770220968700,1.78596875,-0.043807707726955414,0.01118494663387537,-0.05898727849125862
1670350770230893800,1.795893798828125,-0.03848154470324516,0.0079892473295331,-0.05366111174225807
1670350770240819200,1.805819091796875,-0.036351077258586884,-0.0005326165119186044,-0.04726971685886383
1670350770250744600,1.81574462890625,-0.034220609813928604,-0.0005326165119186044,-0.03768261894583702
1670350770260670000,1.825669921875,-0.034220609813928604,0.0015978495357558131,-0.02489982172846794
1670350770270595000,1.835594970703125,-0.03528584539890289,-0.00905448105186224,-0.01744319126009941
1670350770280520400,1.8455205078125,-0.03209014609456062,-0.029293907806277275,-0.0185084231197834
1670350770290445800,1.85544580078125,-0.027829213067889214,-0.029293907806277275,-0.02063889056444168
1670350770300371200,1.86537109375,-0.023568280041217804,-0.015445878729224205,-0.02489982172846794
1670350770310296300,1.87529638671875,-0.019307348877191544,-0.00585878174751997,-0.02916075475513935
1670350770320221700,1.8852216796875,-0.011850717477500439,-0.013315413147211075,-0.03555215150117874
1670350770330147000,1.89514697265625,-0.009720250964164734,-0.018641578033566475,-0.03235645219683647
1670350770340072400,1.905072509765625,-0.015046416781842709,-0.022902509197592735,-0.0238345880061388
1670350770349997600,1.91499755859375,-0.025698747485876083,-0.039946239441633224,-0.0185084231197834
1670350770359923000,1.9249228515625,-0.03528584539890289,-0.049533337354660034,-0.011051792651414871
1670350770369848300,1.934848388671875,-0.03848154470324516,-0.049533337354660034,-0.006790860556066036
1670350770379773700,1.944773681640625,-0.03209014609456062,-0.043141938745975494,-0.012117025442421436
1670350770389698800,1.95469873046875,-0.023568280041217804,-0.033554840832948685,-0.02489982172846794
1670350770399624200,1.964624267578125,-0.016111649572849274,-0.023967742919921875,-0.03661738336086273
1670350770409549600,1.974549560546875,-0.013981183059513569,-0.033554840832948685,-0.04194355010986328
1670350770419475000,1.984474853515625,-0.012915950268507004,-0.049533337354660034,-0.04300878196954727
1670350770429400000,1.994400146484375,-0.016111649572849274,-0.061250898987054825,-0.03555215150117874
1670350770439325400,2.004325439453125,-0.021437814459204674,-0.07190322875976562,-0.01957365684211254
1670350770449250600,2.01425048828125,-0.023568280041217804,-0.0740336924791336,-0.0014646954368799925
1670350770459176000,2.024176025390625,-0.023568280041217804,-0.06657706201076508,0.014513799920678139
1670350770469101000,2.03410107421875,-0.026763979345560074,-0.06764229387044907,0.01983996480703354
1670350770479026400,2.0440263671875,-0.026763979345560074,-0.0644465982913971,0.01983996480703354
1670350770488951600,2.05395166015625,-0.023568280041217804,-0.055924732238054276,0.01664426550269127
1670350770498877000,2.063876953125,-0.017176883295178413,-0.051663801074028015,0.009187635034322739
1670350770508802000,2.073802001953125,-0.011850717477500439,-0.047402869910001755,0.0017310036346316338
1670350770518727400,2.0837275390625,-0.008655018173158169,-0.050598569214344025,-0.0025299284607172012
1670350770528652800,2.09365283203125,-0.008655018173158169,-0.055924732238054276,-0.004660394508391619
1670350770538578000,2.103577880859375,-0.013981183059513569,-0.056989967823028564,-0.005725627299398184
1670350770548503300,2.11350341796875,-0.017176883295178413,-0.047402869910001755,-0.005725627299398184
1670350770558428400,2.123428466796875,-0.018242115154862404,-0.030359141528606415,0.0017310036346316338
1670350770568353800,2.133353759765625,-0.019307348877191544,-0.022902509197592735,0.007057168986648321
1670350770578279000,2.14327880859375,-0.015046416781842709,-0.019706811755895615,0.008122402243316174
1670350770588204300,2.153204345703125,-0.009720250964164734,-0.0047935484908521175,0.004926702938973904
1670350770598129400,2.16312939453125,-0.007589785382151604,0.013315413147211075,0.005991935729980469
1670350770608054800,2.1730546875,-0.004394086077809334,0.031424373388290405,0.012383334338665009
1670350770617980200,2.182980224609375,-0.00226362026296556,0.041011471301317215,0.01877473294734955
1670350770627905300,2.1929052734375,-0.0001331541279796511,0.035685304552316666,0.02516612969338894
1670350770637830700,2.20283056640625,0.004127778112888336,0.029293907806277275,0.03049229457974434
1670350770647755800,2.212755859375,0.004127778112888336,0.021837277337908745,0.02729659713804722
1670350770657681200,2.22268115234375,-0.0011983871227130294,0.01438064593821764,0.015579032711684704
1670350770667606300,2.232606201171875,-0.00226362026296556,0.0026630824431777,0.007057168986648321
1670350770677531600,2.24253173828125,-0.0033288532868027687,-0.0037283156998455524,0.0017310036346316338
1670350770687456800,2.252456787109375,-0.008655018173158169,-0.010119713842868805,-0.00359516148455441
1670350770697382100,2.262382080078125,-0.009720250964164734,-0.013315413147211075,-0.0003994623839389533
1670350770707307300,2.272307373046875,-0.008655018173158169,-0.015445878729224205,0.004926702938973904
1670350770717232600,2.282232666015625,-0.007589785382151604,-0.00905448105186224,0.0017310036346316338
1670350770727158000,2.292157958984375,-0.00226362026296556,0.0047935484908521175,-0.004660394508391619
1670350770737083100,2.302083251953125,0.005193010903894901,0.023967742919921875,-0.00359516148455441
1670350770747008500,2.312008544921875,0.007323476951569319,0.027163442224264145,-0.0014646954368799925
1670350770756933600,2.32193359375,0.007323476951569319,0.025032976642251015,0.0017310036346316338
1670350770766859000,2.33185888671875,0.007323476951569319,0.033554840832948685,0.008122402243316174
1670350770776784100,2.3417841796875,-0.0001331541279796511,0.032489608973264694,0.010252867825329304
1670350770786709500,2.35170947265625,-0.007589785382151604,0.018641578033566475,0.012383334338665009
1670350770796634600,2.361634521484375,-0.016111649572849274,-0.0005326165119186044,0.015579032711684704
1670350770806560000,2.37156005859375,-0.028894444927573204,-0.07083799690008163,0.04220985993742943
1670350770816485000,2.381485107421875,-0.06511236727237701,-0.20718781650066376,0.12103710323572159
1670350770826410500,2.391410400390625,-0.08322133123874664,-0.14646953344345093,0.07523208111524582
1670350770836335900,2.4013359375,-0.044872939586639404,-0.042076703161001205,0.014513799920678139
1670350770846261000,2.411260986328125,0.0009320789249613881,0.043141938745975494,-0.01957365684211254
1670350770856186400,2.421186279296875,0.03408745676279068,0.09320788830518723,-0.03661738336086273
1670350770866111500,2.431111572265625,0.05113118514418602,0.17416560649871826,-0.04300878196954727
1670350770876036900,2.441036865234375,0.04793548583984375,0.1699046641588211,-0.02489982172846794
1670350770885962000,2.4509619140625,0.02982652559876442,0.07829462736845016,-0.004660394508391619
1670350770895887400,2.460887451171875,0.011584409512579441,-0.012250179424881935,-0.006790860556066036
1670350770905812500,2.4708125,0.0009320789249613881,-0.041011471301317215,-0.02063889056444168
1670350770915737900,2.48073779296875,-0.006524552125483751,-0.017576344311237335,-0.02276935614645481
1670350770925663200,2.490663330078125,-0.012915950268507004,0.00905448105186224,-0.015312724746763706
1670350770935588400,2.50058837890625,-0.015046416781842709,0.029293907806277275,0.000665770610794425
1670350770945513700,2.510513671875,-0.007589785382151604,0.055924732238054276,0.01983996480703354
1670350770955438800,2.52043896484375,0.0009320789249613881,0.09427312016487122,0.03049229457974434
1670350770965364200,2.5303642578125,0.012649642303586006,0.1177082508802414,0.0347532257437706
1670350770975289300,2.540289306640625,0.01810896210372448,0.13475197553634644,0.03368799388408661
1670350770985214700,2.550214599609375,0.011584409512579441,0.1294258087873459,0.02516612969338894
1670350770995139800,2.560139892578125,0.0009320789249613881,0.10812114924192429,0.01770949922502041
1670350771005065200,2.570065185546875,-0.004394086077809334,0.10386022180318832,0.012383334338665009
1670350771014990300,2.579990234375,-0.020372580736875534,0.14220860600471497,0.010252867825329304
1670350771024915700,2.589915771484375,-0.03209014609456062,0.17949175834655762,0.011318100616335869
1670350771034841000,2.599841064453125,-0.018242115154862404,0.21784014999866486,0.02303566411137581
1670350771044766200,2.60976611328125,0.012649642303586006,0.2231663167476654,0.02516612969338894
1670350771054691600,2.619691650390625,0.02023942768573761,0.1709699034690857,-0.007856093347072601
1670350771064617000,2.629616943359375,0.004127778112888336,0.14540430903434753,-0.004660394508391619
1670350771074542300,2.639542236328125,-0.023568280041217804,0.1390129029750824,0.009187635034322739
1670350771084467500,2.649467529296875,-0.041677240282297134,0.11557777971029282,0.005991935729980469
1670350771094392800,2.659392822265625,-0.028894444927573204,0.1070559173822403,0.0017310036346316338
1670350771104318200,2.669318115234375,-0.010785484686493874,0.13049104809761047,-0.02063889056444168
1670350771114243600,2.67924365234375,-0.011850717477500439,0.1496652364730835,-0.05792204663157463
1670350771124168700,2.689168701171875,-0.024633513763546944,0.15605664253234863,-0.0930747389793396
1670350771134094000,2.699093994140625,-0.03954677656292915,0.14433906972408295,-0.11118369549512863
1670350771144019500,2.70901953125,-0.05232957378029823,0.0953383520245552,-0.1143793985247612
1670350771153944800,2.71894482421875,-0.061916667968034744,0.033554840832948685,-0.10692276805639267
1670350771163870000,2.728869873046875,-0.061916667968034744,-0.021837277337908745,-0.08455286920070648
1670350771173795300,2.73879541015625,-0.05232957378029823,-0.042076703161001205,-0.05579157918691635
1670350771183720700,2.748720703125,-0.03848154470324516,-0.051663801074028015,-0.04513924941420555
1670350771193646000,2.75864599609375,-0.025698747485876083,-0.053794268518686295,-0.03874785080552101
1670350771203571200,2.7685712890625,-0.016111649572849274,-0.047402869910001755,-0.03342168778181076
1670350771213496600,2.77849658203125,-0.009720250964164734,-0.044207170605659485,-0.02596505545079708
1670350771223422000,2.788421875,-0.00226362026296556,-0.056989967823028564,-0.01957365684211254
1670350771233347300,2.798347412109375,0.0030625448562204838,-0.08255556225776672,-0.011051792651414871
1670350771243272400,2.8082724609375,0.008388710208237171,-0.11131685227155685,-0.0014646954368799925
1670350771253197800,2.81819775390625,0.004127778112888336,-0.12090394645929337,0.010252867825329304
1670350771263123200,2.828123291015625,0.0009320789249613881,-0.12303441762924194,0.02303566411137581
1670350771273048600,2.838048583984375,-0.004394086077809334,-0.11451254785060883,0.04007939249277115
1670350771282973700,2.8479736328125,-0.018242115154862404,-0.11344731599092484,0.0560578890144825
1670350771292899000,2.857899169921875,-0.024633513763546944,-0.11451254785060883,0.06244928762316704
1670350771302824400,2.867824462890625,-0.025698747485876083,-0.11238208413124084,0.05925358831882477
1670350771312749800,2.877749755859375,-0.024633513763546944,-0.11451254785060883,0.04966649040579796
1670350771322675000,2.887675048828125,-0.018242115154862404,-0.10918638855218887,0.03368799388408661
1670350771332600300,2.897600341796875,-0.006524552125483751,-0.09959928691387177,0.008122402243316174
1670350771342525700,2.907525634765625,0.005193010903894901,-0.08255556225776672,-0.01637795753777027
1670350771352451000,2.917451171875,0.004127778112888336,-0.058055199682712555,-0.02703028731048107
1670350771362376200,2.927376220703125,0.004127778112888336,-0.054859500378370285,-0.03235645219683647
1670350771372301600,2.937301513671875,0.009453942999243736,-0.06977276504039764,-0.039813082665205
1670350771382227000,2.94722705078125,0.014780107885599136,-0.07296846061944962,-0.04513924941420555
1670350771392152300,2.95715234375,0.01810896210372448,-0.062316130846738815,-0.04513924941420555
1670350771402077400,2.967077392578125,0.01704372838139534,-0.035685304552316666,-0.03235645219683647
1670350771412002800,2.9770029296875,0.001997311832383275,-0.019706811755895615,-0.008921326138079166
1670350771421928200,2.98692822265625,-0.008655018173158169,-0.030359141528606415,0.01664426550269127
1670350771431853600,2.996853515625,-0.011850717477500439,-0.045272402465343475,0.03155753016471863
1670350771441778700,3.00677880859375,-0.013981183059513569,-0.047402869910001755,0.03368799388408661
1670350771451704000,3.0167041015625,-0.017176883295178413,-0.036750540137290955,0.02303566411137581
1670350771461629400,3.02662939453125,-0.016111649572849274,-0.030359141528606415,0.004926702938973904
1670350771471554800,3.036554931640625,-0.007589785382151604,-0.034620072692632675,-0.01957365684211254
1670350771481480000,3.04647998046875,0.001997311832383275,-0.047402869910001755,-0.04620448127388954
1670350771491405300,3.0564052734375,0.004127778112888336,-0.046337638050317764,-0.05685681104660034
1670350771501330700,3.06633056640625,-0.00226362026296556,-0.035685304552316666,-0.05259587988257408
1670350771511255800,3.076255859375,-0.011850717477500439,-0.041011471301317215,-0.04087831825017929
1670350771521181200,3.08618115234375,-0.03209014609456062,-0.053794268518686295,-0.02170412242412567
1670350771531106600,3.0961064453125,-0.0555252730846405,-0.060185667127370834,-0.0014646954368799925
1670350771541031700,3.10603173828125,-0.07576470077037811,-0.058055199682712555,0.011318100616335869
1670350771550957000,3.11595703125,-0.08109086751937866,-0.051663801074028015,0.02729659713804722
1670350771560882200,3.125882080078125,-0.0768299326300621,-0.09746882319450378,0.03155753016471863
1670350771570807600,3.1358076171875,-0.09067796170711517,-0.16244803369045258,0.03368799388408661
1670350771580732700,3.145732666015625,-0.09174319356679916,-0.2029268890619278,0.04114462435245514
1670350771590658000,3.155657958984375,-0.06298190355300903,-0.2114487588405609,0.03794892504811287
1670350771600583200,3.165583251953125,-0.020372580736875534,-0.1699046641588211,0.0347532257437706
1670350771610508500,3.175508544921875,0.02236989326775074,-0.1390129029750824,0.02623136341571808
1670350771620433700,3.18543359375,0.05219641700387001,-0.14433906972408295,0.01877473294734955
1670350771630359000,3.195359130859375,0.06178351491689682,-0.1709699034690857,0.012383334338665009
1670350771640284400,3.205284423828125,0.05539211630821228,-0.2146444469690323,0.0027962366584688425
1670350771650209500,3.21520947265625,0.04793548583984375,-0.264710396528244,-0.011051792651414871
1670350771660135000,3.225135009765625,0.0426093190908432,-0.3083849549293518,-0.02703028731048107
1670350771670060000,3.23506005859375,0.04154408723115921,-0.329689621925354,-0.03342168778181076
1670350771679985400,3.2449853515625,0.04580501839518547,-0.3424724042415619,-0.02916075475513935
1670350771689910500,3.25491064453125,0.06497921794652939,-0.3733641803264618,-0.02170412242412567
1670350771699836000,3.2648359375,0.08202294260263443,-0.42236489057540894,-0.005725627299398184
1670350771709761000,3.274760986328125,0.07350108027458191,-0.45325663685798645,0.01664426550269127
1670350771719686400,3.284686279296875,0.04793548583984375,-0.45112618803977966,0.04753602296113968
1670350771729611800,3.29461181640625,0.011584409512579441,-0.4276910722255707,0.07523208111524582
1670350771739537000,3.304536865234375,-0.023568280041217804,-0.3840165138244629,0.09121058136224747
1670350771749462300,3.314462158203125,-0.037416309118270874,-0.3179720640182495,0.098667211830616
1670350771759387400,3.324387451171875,-0.029959678649902344,-0.25086238980293274,0.08481918275356293
1670350771769312800,3.334312744140625,-0.010785484686493874,-0.17949175834655762,0.0560578890144825
1670350771779238000,3.34423779296875,0.015845341607928276,-0.08788172155618668,0.03368799388408661
1670350771789163300,3.354163330078125,0.03408745676279068,-0.026098208501935005,0.009187635034322739
1670350771799088400,3.36408837890625,0.04473978653550148,-0.00905448105186224,-0.006790860556066036
1670350771809013800,3.374013671875,0.03621792420744896,-0.029293907806277275,-0.01637795753777027
1670350771818939000,3.38393896484375,0.01704372838139534,-0.049533337354660034,-0.01637795753777027
1670350771828864300,3.3938642578125,0.004127778112888336,-0.046337638050317764,-0.008921326138079166
1670350771838789600,3.40378955078125,-0.0001331541279796511,-0.030359141528606415,-0.0025299284607172012
1670350771848714800,3.41371484375,0.0009320789249613881,-0.010119713842868805,0.008122402243316174
1670350771858640100,3.42364013671875,-0.00226362026296556,0.0047935484908521175,0.02836182899773121
1670350771868565200,3.433565185546875,-0.005459319334477186,0.0005326165119186044,0.04220985993742943
1670350771878490600,3.44349072265625,-0.004394086077809334,-0.00585878174751997,0.04327509179711342
1670350771888415700,3.453415771484375,-0.004394086077809334,-0.059120431542396545,0.03155753016471863
1670350771898341000,3.463341064453125,-0.009720250964164734,-0.051663801074028015,0.007057168986648321
1670350771908266200,3.473266357421875,-0.00226362026296556,-0.006924014538526535,-0.02916075475513935
1670350771918191600,3.483191650390625,0.011584409512579441,0.01438064593821764,-0.04620448127388954
1670350771928116700,3.49311669921875,0.015845341607928276,0.028228675946593285,-0.0238345880061388
1670350771938042000,3.5030419921875,-0.004394086077809334,0.042076703161001205,0.01770949922502041
1670350771947967500,3.512967529296875,-0.026763979345560074,0.07935985922813416,0.05286218971014023
1670350771957892600,3.522892578125,-0.020372580736875534,0.10066451877355576,0.05712312087416649
1670350771967818000,3.53281787109375,0.007323476951569319,0.09853405505418777,0.04220985993742943
1670350771977743400,3.542743408203125,0.02556559257209301,0.0964035913348198,0.03368799388408661
1670350771987668500,3.55266845703125,0.03089175745844841,0.09001219272613525,0.03155753016471863
1670350771997593900,3.56259375,0.02556559257209301,0.07935985922813416,0.03688369318842888
1670350772007519200,3.572519287109375,0.012649642303586006,0.0633813664317131,0.03901416063308716
1670350772017444600,3.582444580078125,0.004127778112888336,0.050598569214344025,0.03368799388408661
1670350772027369700,3.59236962890625,0.010519175790250301,0.038881003856658936,0.01877473294734955
1670350772037295000,3.602295166015625,0.0213046595454216,0.036750540137290955,0.0017310036346316338
1670350772047220500,3.612220458984375,0.02236989326775074,0.048468101769685745,-0.004660394508391619
1670350772057145900,3.622145751953125,0.013714875094592571,0.058055199682712555,0.0017310036346316338
1670350772067071000,3.632071044921875,0.008388710208237171,0.055924732238054276,0.009187635034322739
1670350772076996400,3.641996337890625,0.004127778112888336,0.053794268518686295,0.01770949922502041
1670350772086921700,3.651921630859375,-0.010785484686493874,0.061250898987054825,0.02729659713804722
1670350772096847000,3.66184716796875,-0.0555252730846405,0.1166430190205574,0.04966649040579796
1670350772106772200,3.671772216796875,-0.09387365728616714,0.1486000120639801,0.05712312087416649
1670350772116697600,3.681697509765625,-0.11198262125253677,0.13688243925571442,0.03368799388408661
1670350772126623000,3.691623046875,-0.10346075892448425,0.11877348273992538,-0.006790860556066036
1670350772136548400,3.70154833984375,-0.08854749798774719,0.13688243925571442,-0.04300878196954727
1670350772146473500,3.711473388671875,-0.09706936031579971,0.17416560649871826,-0.0611177459359169
1670350772156398800,3.72139892578125,-0.1311568170785904,0.23807957768440247,-0.04513924941420555
1670350772166324200,3.73132421875,-0.15885287523269653,0.26257994771003723,-0.03235645219683647
1670350772176249600,3.74124951171875,-0.16524426639080048,0.26151469349861145,-0.03129122033715248
1670350772186174700,3.7511748046875,-0.16098333895206451,0.3307548463344574,-0.0185084231197834
1670350772196100000,3.76110009765625,-0.15778763592243195,0.39786452054977417,-0.013182258233428001
1670350772206025500,3.771025390625,-0.1524614691734314,0.41064733266830444,-0.015312724746763706
1670350772215950800,3.780950927734375,-0.13648298382759094,0.3829512596130371,-0.01637795753777027
1670350772225876000,3.7908759765625,-0.12370018661022186,0.3499290347099304,-0.02063889056444168
1670350772235801300,3.80080126953125,-0.12263495475053787,0.2956021726131439,-0.06644391268491745
1670350772245726700,3.810726806640625,-0.1194392517209053,0.2987978756427765,-0.14314068853855133
1670350772255652000,3.820652099609375,-0.11091738939285278,0.3382114768028259,-0.20385897159576416
1670350772265577200,3.8305771484375,-0.0991998240351677,0.3414071798324585,-0.23688119649887085
1670350772275502600,3.840502685546875,-0.0874822586774826,0.3009283244609833,-0.22622886300086975
1670350772285428000,3.850427978515625,-0.10026505589485168,0.2529928386211395,-0.16231487691402435
1670350772295353300,3.860353271484375,-0.13435252010822296,0.1912093311548233,-0.06963960826396942
1670350772305278500,3.870278564453125,-0.1822880059480667,0.19547025859355927,0.0454055592417717
1670350772315203800,3.880203857421875,-0.2994636297225952,-0.035685304552316666,0.13488513231277466
1670350772325129200,3.890129150390625,-0.31863781809806824,0.17949175834655762,0.2925396263599396
1670350772335054600,3.9000546875,-0.23874534666538239,0.0644465982913971,0.37988871335983276
1670350772344979700,3.909979736328125,-0.15991811454296112,-0.059120431542396545,0.3415403366088867
1670350772354905000,3.919905029296875,-0.12583065032958984,0.012250179424881935,0.28614822030067444
1670350772364830500,3.92983056640625,-0.11198262125253677,0.0644465982913971,0.21903854608535767
1670350772374755800,3.939755859375,-0.10026505589485168,0.056989967823028564,0.14340700209140778
1670350772384681000,3.949680908203125,-0.10026505589485168,0.036750540137290955,0.07842778414487839
1670350772394606300,3.9596064453125,-0.11730878800153732,0.048468101769685745,0.05286218971014023
1670350772404531700,3.96953173828125,-0.12689588963985443,0.08255556225776672,0.05818835273385048
1670350772414457000,3.97945703125,-0.12263495475053787,0.07829462736845016,0.06244928762316704
1670350772424382200,3.98938232421875,-0.11624355614185333,0.06870753318071365,0.06138405203819275
1670350772434307600,3.9993076171875,-0.10346075892448425,0.09320788830518723,0.06884068250656128
1670350772444233000,4.00923291015625,-0.08641702681779861,0.18481792509555817,0.09334104508161545
1670350772454158300,4.019158447265625,-0.07256899774074554,0.23275341093540192,0.10612384229898453
1670350772464083500,4.02908349609375,-0.067242830991745,0.17629607021808624,0.09653674066066742
1670350772474008800,4.0390087890625,-0.0778951644897461,0.16457849740982056,0.09653674066066742
1670350772483934200,4.048934326171875,-0.08961272984743118,0.19653549790382385,0.10612384229898453
1670350772493859600,4.058859619140625,-0.08854749798774719,0.18375270068645477,0.10399337112903595
1670350772503784700,4.06878466796875,-0.0768299326300621,0.15073047578334808,0.09547150880098343
1670350772513710000,4.0787099609375,-0.060851436108350754,0.14433906972408295,0.0880148783326149
1670350772523635500,4.088635498046875,-0.044872939586639404,0.16457849740982056,0.07949301600456238
1670350772533560800,4.098560791015625,-0.019307348877191544,0.18801362812519073,0.06564498692750931
1670350772543486000,4.10848583984375,0.009453942999243736,0.18907886743545532,0.04753602296113968
1670350772553411300,4.118411376953125,0.02663082629442215,0.17310036718845367,0.04114462435245514
1670350772563336700,4.128336669921875,0.010519175790250301,0.15286093950271606,0.04860125854611397
1670350772573262000,4.138261962890625,-0.03954677656292915,0.14007814228534698,0.0773625448346138
1670350772583187500,4.1481875,-0.10452599078416824,0.10492545366287231,0.11784140020608902
1670350772593112600,4.158112548828125,-0.172700896859169,0.047402869910001755,0.1615159511566162
1670350772603038000,4.168037841796875,-0.22383208572864532,0.019706811755895615,0.19879911839962006
1670350772612963300,4.17796337890625,-0.23874534666538239,0.025032976642251015,0.21158191561698914
1670350772622888700,4.187888671875,-0.1940055638551712,0.038881003856658936,0.19773387908935547
1670350772632813800,4.197813720703125,-0.10239552706480026,0.0740336924791336,0.16684211790561676
1670350772642739200,4.2077392578125,-0.006524552125483751,0.13581721484661102,0.1295589655637741
1670350772652664300,4.217664306640625,0.1267627328634262,0.20718781650066376,0.0880148783326149
1670350772662589700,4.227589599609375,0.22689463198184967,0.2231663167476654,0.05286218971014023
1670350772672514800,4.237514892578125,0.2790910601615906,0.24979715049266815,0.05818835273385048
1670350772682440200,4.247440185546875,0.2961347699165344,0.2540580630302429,0.09653674066066742
1670350772692365300,4.257365234375,0.299330472946167,0.2135792225599289,0.13595037162303925
1670350772702290700,4.267290771484375,0.30359140038490295,0.17736129462718964,0.16684211790561676
1670350772712215800,4.2772158203125,0.2982652485370636,0.17416560649871826,0.19240771234035492
1670350772722141200,4.28714111328125,0.28228676319122314,0.17310036718845367,0.20199480652809143
1670350772732066600,4.297066650390625,0.2641777992248535,0.14114338159561157,0.18175537884235382
1670350772741991700,4.30699169921875,0.24713405966758728,0.13475197553634644,0.15618979930877686
1670350772751917000,4.3169169921875,0.22902509570121765,0.1070559173822403,0.1295589655637741
1670350772761842200,4.32684228515625,0.1928071826696396,0.09214265644550323,0.09760197252035141
1670350772771767600,4.336767578125,0.15445879101753235,0.0953383520245552,0.05286218971014023
1670350772781692700,4.346692626953125,0.13208889961242676,0.08149032294750214,-0.0025299284607172012
1670350772791618000,4.3566181640625,0.12037133425474167,0.044207170605659485,-0.05366111174225807
1670350772801543200,4.366543212890625,0.10758853703737259,-0.0005326165119186044,-0.08348763734102249
1670350772811468500,4.376468505859375,0.08308817446231842,-0.034620072692632675,-0.08881380409002304
1670350772821393700,4.3863935546875,0.04793548583984375,-0.042076703161001205,-0.07603100687265396
1670350772831319000,4.396319091796875,0.015845341607928276,-0.029293907806277275,-0.05366111174225807
1670350772841244400,4.406244384765625,0.0009320789249613881,-0.0015978495357558131,-0.03129122033715248
1670350772851169500,4.41616943359375,0.007323476951569319,0.046337638050317764,-0.01637795753777027
1670350772861095000,4.426094970703125,0.02663082629442215,0.10066451877355576,-0.007856093347072601
1670350772871020000,4.43602001953125,0.04793548583984375,0.11877348273992538,0.004926702938973904
1670350772880945400,4.4459453125,0.05752258375287056,0.10279498994350433,0.01770949922502041
1670350772890870500,4.45587060546875,0.05645735189318657,0.08788172155618668,0.02303566411137581
1670350772900796000,4.4657958984375,0.05219641700387001,0.0964035913348198,0.02303566411137581
1670350772910721000,4.475720947265625,0.04473978653550148,0.11131685227155685,0.02410089783370495
1670350772920646400,4.485646484375,0.02982652559876442,0.09853405505418777,0.03581846132874489
1670350772930571800,4.49557177734375,0.01917419396340847,0.062316130846738815,0.04114462435245514
1670350772940497000,4.505496826171875,0.02450035884976387,0.052729032933712006,0.03901416063308716
1670350772950422300,4.51542236328125,0.03302222490310669,0.07083799690008163,0.0347532257437706
1670350772960347400,4.525347412109375,0.04154408723115921,0.07722939550876617,0.02836182899773121
1670350772970272800,4.535272705078125,0.05113118514418602,0.12196917831897736,0.0347532257437706
1670350772980198000,4.545197998046875,0.06284874677658081,0.1603175699710846,0.06138405203819275
1670350772990123300,4.555123291015625,0.07563154399394989,0.18907886743545532,0.07629731297492981
1670350773000048600,4.565048583984375,0.0958709716796875,0.2146444469690323,0.08588441461324692
1670350773009974000,4.57497412109375,0.11184946447610855,0.18694838881492615,0.08694964647293091
1670350773019899100,4.584899169921875,0.11184946447610855,0.13155627250671387,0.07842778414487839
1670350773029824500,4.594824462890625,0.09267527610063553,0.07722939550876617,0.07949301600456238
1670350773039750000,4.60475,0.06924014538526535,0.019706811755895615,0.07097115367650986
1670350773049675300,4.61467529296875,0.0426093190908432,-0.00905448105186224,0.05712312087416649
1670350773059600400,4.624600341796875,0.02556559257209301,-0.0005326165119186044,0.06564498692750931
1670350773069525800,4.63452587890625,0.015845341607928276,0.0047935484908521175,0.08375394344329834
1670350773079451100,4.644451171875,0.015845341607928276,0.016511112451553345,0.098667211830616
1670350773089376500,4.65437646484375,0.02556559257209301,0.038881003856658936,0.09121058136224747
1670350773099301600,4.664301513671875,0.03941362351179123,0.06657706201076508,0.07842778414487839
1670350773109227000,4.67422705078125,0.04367455467581749,0.08788172155618668,0.07097115367650986
1670350773119152400,4.68415234375,0.04473978653550148,0.08255556225776672,0.06990591436624527
1670350773129077800,4.694077880859375,0.03941362351179123,0.056989967823028564,0.07203638553619385
1670350773139003000,4.7040029296875,0.02769605815410614,0.026098208501935005,0.06351451575756073
1670350773148928300,4.71392822265625,0.02236989326775074,-0.0005326165119186044,0.04434032365679741
1670350773158853600,4.723853515625,0.01810896210372448,-0.020772043615579605,0.02090519852936268
1670350773168779000,4.733779052734375,0.011584409512579441,-0.041011471301317215,-0.0025299284607172012
1670350773178704400,4.743704345703125,0.005193010903894901,-0.062316130846738815,-0.01637795753777027
1670350773188629500,4.75362939453125,-0.0033288532868027687,-0.06764229387044907,-0.014247491955757141
1670350773198555000,4.763554931640625,-0.007589785382151604,-0.047402869910001755,-0.009986559860408306
1670350773208480300,4.773480224609375,-0.0011983871227130294,-0.01118494663387537,-0.00359516148455441
1670350773218405600,4.783405517578125,0.009453942999243736,0.021837277337908745,0.007057168986648321
1670350773228330800,4.793330810546875,0.015845341607928276,0.027163442224264145,0.02303566411137581
1670350773238256000,4.803256103515625,0.01704372838139534,0.025032976642251015,0.03901416063308716
1670350773248181500,4.813181396484375,0.01810896210372448,0.023967742919921875,0.04753602296113968
1670350773258107000,4.82310693359375,0.02236989326775074,0.023967742919921875,0.04114462435245514
1670350773268032000,4.833031982421875,0.02663082629442215,0.027163442224264145,0.02090519852936268
1670350773277957400,4.842957275390625,0.03515268862247467,0.036750540137290955,0.000665770610794425
1670350773287882800,4.8528828125,0.03834838792681694,0.052729032933712006,-0.007856093347072601
1670350773297808100,4.86280810546875,0.03515268862247467,0.07296846061944962,-0.006790860556066036
1670350773307733200,4.872733154296875,0.03834838792681694,0.09959928691387177,-0.005725627299398184
1670350773317658600,4.88265869140625,0.0426093190908432,0.11451254785060883,-0.0014646954368799925
1670350773327584000,4.892583984375,0.0426093190908432,0.11557777971029282,0.011318100616335869
1670350773337509400,4.90250927734375,0.03941362351179123,0.1070559173822403,0.02942706272006035
1670350773347434500,4.9124345703125,0.04900071769952774,0.12303441762924194,0.03794892504811287
1670350773357359900,4.92235986328125,0.06924014538526535,0.17416560649871826,0.02623136341571808
1670350773367285200,4.93228515625,0.0639139786362648,0.2679060995578766,0.10612384229898453
1670350773377210600,4.942210693359375,0.001997311832383275,0.23594911396503448,0.1732335239648819
1670350773387135700,4.9521357421875,-0.019307348877191544,0.14220860600471497,0.15832026302814484
1670350773397061000,4.96206103515625,-0.0011983871227130294,0.137947678565979,0.04753602296113968
1670350773406986500,4.971986572265625,0.0319569893181324,0.13262151181697845,-0.08561810106039047
1670350773416912000,4.981911865234375,0.06817491352558136,0.13368675112724304,-0.1889457106590271
1670350773426837000,4.9918369140625,0.09374050796031952,0.13475197553634644,-0.21877223253250122
1670350773436762400,5.001762451171875,0.10865376889705658,0.0964035913348198,-0.2006632685661316
1670350773446687700,5.011687744140625,0.11611039936542511,0.046337638050317764,-0.13994498550891876
1670350773456613000,5.021613037109375,0.11397993564605713,0.033554840832948685,-0.02809552103281021
1670350773466538200,5.031538330078125,0.08095771074295044,0.041011471301317215,0.10612384229898453
1670350773476463600,5.041463623046875,0.011584409512579441,0.034620072692632675,0.21051667630672455
1670350773486389000,5.051388916015625,-0.033155377954244614,-0.0037283156998455524,0.22223423421382904
1670350773496314400,5.061314453125,-0.023568280041217804,-0.031424373388290405,0.15405932068824768
1670350773506239500,5.071239501953125,-0.00226362026296556,-0.015445878729224205,0.05499265342950821
1670350773516164900,5.081164794921875,0.013714875094592571,0.021837277337908745,-0.03448691964149475
1670350773526090200,5.09109033203125,0.02663082629442215,0.039946239441633224,-0.09520520269870758
1670350773536015600,5.101015625,0.0213046595454216,0.00585878174751997,-0.11224892735481262
1670350773545940700,5.110940673828125,-0.008655018173158169,-0.046337638050317764,-0.08774857223033905
1670350773555866000,5.1208662109375,-0.041677240282297134,-0.13688243925571442,-0.02276935614645481
1670350773565791500,5.13079150390625,-0.10452599078416824,-0.3201025128364563,0.10612384229898453
1670350773575716900,5.140716796875,-0.14607007801532745,-0.28388461470603943,0.12316756695508957
1670350773585642000,5.15064208984375,-0.13541774451732635,-0.27216702699661255,0.12423279881477356
1670350773595567400,5.1605673828125,-0.13435252010822296,-0.2668408751487732,0.10186290740966797
1670350773605492700,5.17049267578125,-0.13861344754695892,-0.2551233172416687,0.09760197252035141
1670350773615418000,5.180418212890625,-0.15459194779396057,-0.24021004140377045,0.10399337112903595
1670350773625343200,5.19034326171875,-0.16630950570106506,-0.2114487588405609,0.10505861043930054
1670350773635268600,5.2002685546875,-0.15565717220306396,-0.15286093950271606,0.08481918275356293
1670350773645194000,5.210194091796875,-0.12156971544027328,-0.08681648969650269,0.05818835273385048
1670350773655119400,5.220119384765625,-0.0778951644897461,-0.0079892473295331,0.01983996480703354
1670350773665044500,5.23004443359375,-0.044872939586639404,0.038881003856658936,-0.03768261894583702
1670350773674969900,5.239969970703125,-0.028894444927573204,0.039946239441633224,-0.08987903594970703
1670350773684895200,5.249895263671875,-0.017176883295178413,0.01438064593821764,-0.11331415921449661
1670350773694820600,5.259820556640625,-0.019307348877191544,-0.018641578033566475,-0.09946613013744354
1670350773704745700,5.269745849609375,-0.040612008422613144,-0.039946239441633224,-0.07603100687265396
1670350773714671000,5.279671142578125,-0.04913387447595596,-0.038881003856658936,-0.04300878196954727
1670350773724596500,5.289596435546875,-0.03954677656292915,-0.006924014538526535,-0.007856093347072601
1670350773734521900,5.29952197265625,-0.012915950268507004,0.06764229387044907,-0.00359516148455441
1670350773744447000,5.309447021484375,0.03089175745844841,0.16138280928134918,-0.05579157918691635
1670350773754372400,5.319372314453125,0.05965305119752884,0.4766917824745178,-0.05579157918691635
1670350773764297700,5.329297607421875,0.02556559257209301,0.38721221685409546,-0.1889457106590271
1670350773774223000,5.33922314453125,0.06284874677658081,0.07616416364908218,-0.31038227677345276
1670350773784148200,5.349148193359375,0.10119713842868805,-0.050598569214344025,-0.24966399371623993
1670350773794073600,5.359073486328125,0.05219641700387001,-0.15286093950271606,-0.11011846363544464
1670350773803999000,5.3689990234375,-0.025698747485876083,-0.2146444469690323,0.02197043038904667
1670350773813924400,5.37892431640625,-0.0768299326300621,-0.22849248349666595,0.12742850184440613
1670350773823849500,5.388849365234375,-0.10452599078416824,-0.1603175699710846,0.2147776037454605
1670350773833774800,5.39877490234375,-0.0991998240351677,-0.09427312016487122,0.22329947352409363
1670350773843700200,5.4087001953125,-0.04913387447595596,-0.01438064593821764,0.1529940962791443
1670350773853625600,5.41862548828125,0.001997311832383275,0.044207170605659485,0.0347532257437706
1670350773863550700,5.42855078125,0.02556559257209301,0.08255556225776672,-0.05685681104660034
1670350773873476000,5.43847607421875,0.03515268862247467,0.11983871459960938,-0.0930747389793396
1670350773883401500,5.4484013671875,0.04473978653550148,0.14114338159561157,-0.10692276805639267
1670350773893326800,5.458326904296875,0.0532616525888443,0.12090394645929337,-0.12290126085281372
1670350773903252000,5.468251953125,0.05539211630821228,0.14540430903434753,-0.09627043455839157
1670350773913177300,5.47817724609375,0.0319569893181324,0.29240646958351135,-0.03448691964149475
1670350773923102700,5.488102783203125,0.01704372838139534,0.26044946908950806,-0.09094426780939102
1670350773933028000,5.498028076171875,0.04900071769952774,0.17736129462718964,-0.16231487691402435
1670350773942953200,5.507953125,0.07350108027458191,0.01118494663387537,-0.20279373228549957
1670350773952878600,5.517878662109375,0.07030537724494934,-0.15179570019245148,-0.1676410436630249
1670350773962804000,5.527803955078125,0.03941362351179123,-0.20399212837219238,-0.039813082665205
1670350773972729300,5.537729248046875,-0.03954677656292915,-0.1486000120639801,0.13701559603214264
1670350773982654500,5.547654541015625,-0.11517832428216934,-0.16138280928134918,0.2552564740180969
1670350773992579800,5.557579833984375,-0.12476541846990585,-0.14220860600471497,0.28614822030067444
1670350774002505200,5.567505126953125,-0.0874822586774826,-0.07083799690008163,0.22116900980472565
1670350774012430600,5.5774306640625,-0.047003407031297684,-0.0005326165119186044,0.10825430601835251
1670350774022355700,5.587355712890625,-0.015046416781842709,0.06764229387044907,0.02623136341571808
1670350774032281000,5.597281005859375,0.001997311832383275,0.11131685227155685,-0.0238345880061388
1670350774042206500,5.60720654296875,0.01917419396340847,0.13581721484661102,-0.05792204663157463
1670350774052131800,5.6171318359375,0.04047885537147522,0.12196917831897736,-0.07709623873233795
1670350774062057000,5.627056884765625,0.06604444980621338,0.245536208152771,-0.04300878196954727
1670350774071982300,5.636982421875,0.05006595328450203,0.47456130385398865,-0.006790860556066036
1670350774081907700,5.64690771484375,0.03728315606713295,0.2785584330558777,-0.14953207969665527
1670350774091833000,5.6568330078125,0.07776200771331787,0.050598569214344025,-0.2517944574356079
1670350774101758200,5.66675830078125,0.08734910935163498,-0.13688243925571442,-0.2209026962518692
1670350774111683600,5.67668359375,0.0532616525888443,-0.2231663167476654,-0.09733566641807556
1670350774121609000,5.68660888671875,-0.006524552125483751,-0.16457849740982056,0.07310161739587784
1670350774131534300,5.696534423828125,-0.0768299326300621,-0.1262301206588745,0.14553746581077576
1670350774141459500,5.70645947265625,-0.06937330216169357,-0.15073047578334808,0.12636326253414154
1670350774151384800,5.716384765625,-0.03848154470324516,-0.14327384531497955,0.07949301600456238
1670350774161310200,5.726310302734375,-0.024633513763546944,-0.059120431542396545,0.03901416063308716
1670350774171235600,5.736235595703125,-0.00226362026296556,0.043141938745975494,-0.007856093347072601
1670350774181160700,5.74616064453125,0.02663082629442215,0.10386022180318832,-0.06324820965528488
1670350774191086000,5.756086181640625,0.04473978653550148,0.16138280928134918,-0.08774857223033905
1670350774201011500,5.766011474609375,0.0319569893181324,0.16244803369045258,-0.06750914454460144
1670350774210936800,5.775936767578125,-0.010785484686493874,0.28068891167640686,0.02836182899773121
1670350774220862000,5.785862060546875,-0.029959678649902344,0.19440503418445587,-0.011051792651414871
1670350774230787300,5.795787353515625,0.013714875094592571,0.07083799690008163,-0.09627043455839157
1670350774240712700,5.805712646484375,0.03728315606713295,-0.0750989317893982,-0.17296721041202545
1670350774250638000,5.81563818359375,0.04367455467581749,-0.13475197553634644,-0.15485824644565582
1670350774260563200,5.825563232421875,0.03941362351179123,-0.1177082508802414,-0.05579157918691635
1670350774270488600,5.835488525390625,0.008388710208237171,-0.047402869910001755,0.07416684925556183
1670350774280414000,5.8454140625,-0.03209014609456062,-0.027163442224264145,0.1423417627811432
1670350774290339300,5.85533935546875,-0.022503048181533813,-0.047402869910001755,0.13701559603214264
1670350774300264400,5.865264404296875,-0.006524552125483751,-0.043141938745975494,0.09547150880098343
1670350774310189800,5.87518994140625,-0.0033288532868027687,0.006924014538526535,0.0560578890144825
1670350774320115200,5.885115234375,-0.006524552125483751,0.048468101769685745,0.013448567129671574
1670350774330040600,5.89504052734375,-0.009720250964164734,0.032489608973264694,-0.03661738336086273
1670350774339965700,5.904965576171875,-0.005459319334477186,0.039946239441633224,-0.06324820965528488
1670350774349891000,5.91489111328125,-0.005459319334477186,0.017576344311237335,-0.07922670245170593
1670350774359816400,5.92481640625,-0.010785484686493874,0.1059906855225563,-0.03448691964149475
1670350774369741800,5.934741943359375,-0.027829213067889214,0.17949175834655762,-0.02703028731048107
1670350774379667000,5.9446669921875,0.005193010903894901,0.07829462736845016,-0.11864032596349716
1670350774389592300,5.95459228515625,0.05645735189318657,-0.07829462736845016,-0.20279373228549957
1670350774399517700,5.964517578125,0.07137060910463333,-0.14220860600471497,-0.16018441319465637
1670350774409443000,5.974443115234375,0.03621792420744896,-0.06870753318071365,-0.02063889056444168
1670350774419368200,5.9843681640625,-0.029959678649902344,-0.00905448105186224,0.08694964647293091
1670350774429293600,5.99429345703125,-0.043807707726955414,-0.051663801074028015,0.09973244369029999
1670350774439219000,6.004218994140625,-0.008655018173158169,-0.056989967823028564,0.07097115367650986
1670350774449144300,6.014144287109375,-0.007589785382151604,-0.038881003856658936,0.02836182899773121
1670350774459069700,6.024069580078125,-0.010785484686493874,0.0005326165119186044,0.008122402243316174
1670350774468994800,6.033994873046875,-0.008655018173158169,0.030359141528606415,-0.0185084231197834
1670350774478920200,6.043920166015625,-0.0033288532868027687,0.041011471301317215,-0.04194355010986328
1670350774488845600,6.053845458984375,0.006258244160562754,0.0644465982913971,-0.04300878196954727
1670350774498771000,6.06377099609375,0.005193010903894901,0.1283605843782425,0.0027962366584688425
1670350774508696000,6.073696044921875,-0.036351077258586884,0.23062294721603394,0.06244928762316704
1670350774518621400,6.083621337890625,-0.024633513763546944,0.1166430190205574,-0.006790860556066036
1670350774528546800,6.093546875,0.02450035884976387,0.052729032933712006,-0.09520520269870758
1670350774538472200,6.10347216796875,0.03621792420744896,-0.056989967823028564,-0.17190198600292206
1670350774548397300,6.113397216796875,0.05113118514418602,-0.1496652364730835,-0.16338011622428894
1670350774558322700,6.12332275390625,0.04793548583984375,-0.15392617881298065,-0.06324820965528488
1670350774568248000,6.133248046875,0.001997311832383275,-0.09959928691387177,0.08588441461324692
1670350774578173400,6.14317333984375,-0.050199106335639954,-0.08681648969650269,0.16045072674751282
1670350774588098600,6.1530986328125,-0.027829213067889214,-0.050598569214344025,0.13595037162303925
1670350774598024000,6.16302392578125,0.0319569893181324,0.08788172155618668,0.04860125854611397
1670350774607949300,6.17294921875,0.09480573982000351,0.29240646958351135,-0.08348763734102249
1670350774617874700,6.182874755859375,0.16191542148590088,0.4777570068836212,-0.22942456603050232
1670350774627799800,6.1927998046875,0.20452474057674408,0.5065183043479919,-0.34233927726745605
1670350774637725200,6.20272509765625,0.2332860380411148,0.4447347819805145,-0.35512205958366394
1670350774647650600,6.212650634765625,0.24287313222885132,0.3957340717315674,-0.30079516768455505
1670350774657576000,6.222575927734375,0.21837277710437775,0.348863810300827,-0.25818586349487305
1670350774667501000,6.2325009765625,0.18535055220127106,0.30305880308151245,-0.23368549346923828
1670350774677426400,6.242426513671875,0.1715025156736374,0.264710396528244,-0.2006632685661316
1670350774687351800,6.252351806640625,0.15339355170726776,0.15712186694145203,-0.1569887101650238
1670350774697277200,6.262277099609375,0.10013190656900406,-0.006924014538526535,-0.06963960826396942
1670350774707202300,6.272202392578125,0.015845341607928276,-0.0857512578368187,0.07842778414487839
1670350774717127700,6.282127685546875,-0.061916667968034744,-0.08681648969650269,0.22010377049446106
1670350774727053000,6.292052978515625,-0.08641702681779861,-0.09214265644550323,0.25419121980667114
1670350774736978400,6.301978515625,-0.058720968663692474,-0.09001219272613525,0.19666863977909088
1670350774746903600,6.311903564453125,-0.028894444927573204,-0.0740336924791336,0.1199718713760376
1670350774756829000,6.321828857421875,-0.012915950268507004,-0.022902509197592735,0.07629731297492981
1670350774766754300,6.33175439453125,-0.010785484686493874,0.025032976642251015,0.04007939249277115
1670350774776679700,6.3416796875,-0.011850717477500439,-0.017576344311237335,0.007057168986648321
1670350774786604800,6.351604736328125,-0.025698747485876083,-0.09959928691387177,0.02303566411137581
1670350774796530200,6.3615302734375,-0.050199106335639954,-0.11877348273992538,0.08588441461324692
1670350774806455600,6.37145556640625,-0.08109086751937866,-0.11025162041187286,0.13914605975151062
1670350774816381000,6.381380859375,-0.09600412845611572,-0.1166430190205574,0.15725502371788025
1670350774826306000,6.39130615234375,-0.09280842542648315,-0.1294258087873459,0.15618979930877686
1670350774836231400,6.4012314453125,-0.09387365728616714,-0.12409964948892593,0.15405932068824768
1670350774846156800,6.41115673828125,-0.10026505589485168,-0.13049104809761047,0.1519288569688797
1670350774856082200,6.421082275390625,-0.09706936031579971,-0.15925233066082,0.14340700209140778
1670350774866007300,6.43100732421875,-0.09493889659643173,-0.19653549790382385,0.12742850184440613
1670350774875932700,6.4409326171875,-0.09706936031579971,-0.19653549790382385,0.10825430601835251
1670350774885858000,6.450858154296875,-0.0874822586774826,-0.16138280928134918,0.0880148783326149
1670350774895783400,6.460783447265625,-0.061916667968034744,-0.12516488134860992,0.05925358831882477
1670350774905708500,6.47070849609375,-0.034220609813928604,-0.08042509108781815,0.02303566411137581
1670350774915634000,6.480634033203125,-0.012915950268507004,-0.012250179424881935,-0.01637795753777027
1670350774925559300,6.490559326171875,0.013714875094592571,0.0644465982913971,-0.04940018057823181
1670350774935484700,6.500484619140625,0.03834838792681694,0.11344731599092484,-0.07709623873233795
1670350774945409800,6.510409912109375,0.04687025398015976,0.12303441762924194,-0.1037270650267601
1670350774955335200,6.520335205078125,0.04580501839518547,0.0846860259771347,-0.09840089827775955
1670350774965260500,6.530260498046875,0.03408745676279068,0.034620072692632675,-0.05366111174225807
1670350774975186000,6.54018603515625,0.012649642303586006,0.0037283156998455524,0.0027962366584688425
1670350774985111000,6.550111083984375,0.0009320789249613881,-0.0079892473295331,0.04114462435245514
1670350774995036400,6.560036376953125,0.004127778112888336,0.0037283156998455524,0.04434032365679741
1670350775004961800,6.5699619140625,0.015845341607928276,0.032489608973264694,0.02410089783370495
1670350775014887200,6.57988720703125,0.02769605815410614,0.07829462736845016,-0.005725627299398184
1670350775024812300,6.589812255859375,0.04047885537147522,0.1177082508802414,-0.04620448127388954
1670350775034737700,6.599737548828125,0.05539211630821228,0.14327384531497955,-0.09627043455839157
1670350775044663000,6.6096630859375,0.06497921794652939,0.13368675112724304,-0.12929265201091766
1670350775054588400,6.61958837890625,0.06497921794652939,0.10492545366287231,-0.10692276805639267
1670350775064513500,6.629513427734375,0.04900071769952774,0.11877348273992538,-0.04940018057823181
1670350775074439000,6.63943896484375,0.03621792420744896,0.1177082508802414,-0.013182258233428001
1670350775084364300,6.6493642578125,0.04900071769952774,0.14327384531497955,0.000665770610794425
1670350775094289700,6.65928955078125,0.07563154399394989,0.2902759909629822,0.03368799388408661
1670350775104214800,6.66921484375,0.06178351491689682,0.675890326499939,0.22329947352409363
1670350775114140200,6.67914013671875,-0.020372580736875534,0.2561885416507721,0.18814678490161896
1670350775124065500,6.6890654296875,-0.050199106335639954,-0.06870753318071365,0.0454055592417717
1670350775133991000,6.698990966796875,-0.031024912372231483,-0.15712186694145203,-0.06431344151496887
1670350775143916000,6.708916015625,-0.037416309118270874,-0.2785584330558777,-0.08348763734102249
1670350775153841400,6.71884130859375,-0.050199106335639954,-0.2977326214313507,-0.03768261894583702
1670350775163766800,6.728766845703125,-0.03528584539890289,-0.35525521636009216,0.05818835273385048
1670350775173692200,6.738692138671875,-0.021437814459204674,-0.3083849549293518,0.23927797377109528
1670350775183617300,6.7486171875,-0.05978620424866676,-0.1581871062517166,0.3639102280139923
1670350775193542700,6.758542724609375,-0.07150376588106155,-0.022902509197592735,0.27336543798446655
1670350775203468000,6.768468017578125,-0.005459319334477186,0.08681648969650269,0.08162347972393036
1670350775213393400,6.778393310546875,0.07137060910463333,0.16777420043945312,-0.10692276805639267
1670350775223318500,6.788318603515625,0.1171756312251091,0.22849248349666595,-0.21664176881313324
1670350775233244000,6.798243896484375,0.13208889961242676,0.24766667187213898,-0.262446790933609
1670350775243169300,6.808169189453125,0.1395455300807953,0.21570968627929688,-0.26031631231307983
1670350775253094700,6.8180947265625,0.14167599380016327,0.18375270068645477,-0.21664176881313324
1670350775263019800,6.828019775390625,0.13102366030216217,0.1720351278781891,-0.15379302203655243
1670350775272945200,6.837945068359375,0.12037133425474167,0.16457849740982056,-0.10159660130739212
1670350775282870500,6.84787060546875,0.12250179797410965,0.18481792509555817,-0.06644391268491745
1670350775292796000,6.8577958984375,0.12569749355316162,0.27003657817840576,-0.04726971685886383
1670350775302721000,6.867720947265625,0.10119713842868805,0.4042559266090393,-0.04194355010986328
1670350775312646400,6.877646484375,-0.018242115154862404,0.5512580871582031,-0.03022598661482334
1670350775322571800,6.88757177734375,-0.11198262125253677,0.6258243918418884,-0.0014646954368799925
1670350775332497200,6.8974970703125,-0.1620485782623291,0.6790860295295715,0.04220985993742943
1670350775342422300,6.90742236328125,-0.21104928851127625,0.7930659651756287,0.05286218971014023
1670350775352347600,6.91734765625,-0.23874534666538239,0.9615059494972229,0.02729659713804722
1670350775362273000,6.92727294921875,-0.2057231217622757,1.1223561763763428,-0.012117025442421436
1670350775372198400,6.937198486328125,-0.13861344754695892,1.2310099601745605,-0.06857437640428543
1670350775382123500,6.94712353515625,-0.05978620424866676,1.268293023109436,-0.13142313063144684
1670350775392049000,6.957048828125,0.01704372838139534,1.221422791481018,-0.1793586164712906
1670350775401974300,6.966974365234375,0.08734910935163498,1.1489869356155396,-0.20172850787639618
1670350775411899600,6.976899658203125,0.13315412402153015,1.0722901821136475,-0.2219679355621338
1670350775421824800,6.98682470703125,0.1608501821756363,0.990267276763916,-0.22729410231113434
1670350775431750100,6.996750244140625,0.17682868242263794,0.9027850031852722,-0.1889457106590271
1670350775441675500,7.006675537109375,0.1597849577665329,0.7866745591163635,-0.10798799991607666
1670350775451601000,7.016600830078125,0.1171756312251091,0.6460638046264648,0.000665770610794425
1670350775461526000,7.026526123046875,0.07243584841489792,0.46071329712867737,0.13381989300251007
1670350775471451400,7.036451416015625,0.02023942768573761,0.24660144746303558,0.20838621258735657
1670350775481376800,7.046376708984375,-0.0033288532868027687,0.11025162041187286,0.20306004583835602
1670350775491302100,7.05630224609375,0.01704372838139534,0.0633813664317131,0.19240771234035492
1670350775501227300,7.066227294921875,0.011584409512579441,0.07616416364908218,0.14979839324951172
1670350775511152600,7.076152587890625,0.013714875094592571,0.11451254785060883,0.11571093648672104
1670350775521078000,7.086078125,0.03621792420744896,0.13581721484661102,0.10186290740966797
1670350775531003400,7.09600341796875,0.0532616525888443,0.15925233066082,0.08055824786424637
1670350775540928500,7.105928466796875,0.06284874677658081,0.20718781650066376,0.06457975506782532
1670350775550854000,7.11585400390625,0.07243584841489792,0.21890538930892944,0.06564498692750931
1670350775560779300,7.125779296875,0.07137060910463333,0.1922745555639267,0.08588441461324692
1670350775570704600,7.13570458984375,0.05539211630821228,0.17523083090782166,0.11677616834640503
1670350775580629800,7.145629638671875,0.04687025398015976,0.14114338159561157,0.14660269021987915
1670350775590555100,7.15555517578125,0.04580501839518547,0.08362079411745071,0.15832026302814484
1670350775600480500,7.16548046875,0.04473978653550148,0.055924732238054276,0.15832026302814484
1670350775610406000,7.175406005859375,0.04473978653550148,0.0644465982913971,0.17003782093524933
1670350775620331000,7.1853310546875,0.04154408723115921,0.09320788830518723,0.17749445140361786
1670350775630256400,7.19525634765625,0.02876129187643528,0.17949175834655762,0.1625811904668808
1670350775640181800,7.205181640625,0.03089175745844841,0.25831902027130127,0.14447222650051117
1670350775650107100,7.215107177734375,0.04047885537147522,0.264710396528244,0.12742850184440613
1670350775660032300,7.2250322265625,0.05219641700387001,0.264710396528244,0.11038476973772049
1670350775669957600,7.23495751953125,0.07030537724494934,0.25938424468040466,0.11464570462703705
1670350775679883000,7.244883056640625,0.07669677585363388,0.28068891167640686,0.14660269021987915
1670350775689808400,7.254808349609375,0.05432688444852829,0.24234052002429962,0.20092958211898804
1670350775699733500,7.2647333984375,0.02663082629442215,0.1581871062517166,0.27336543798446655
1670350775709659000,7.274658935546875,0.014780107885599136,0.18588316440582275,0.3095833361148834
1670350775719584300,7.284584228515625,0.010519175790250301,0.4458000063896179,0.2904091477394104
1670350775729509600,7.294509521484375,0.04687025398015976,1.1809439659118652,0.04753602296113968
1670350775739435000,7.30443505859375,0.11504516750574112,0.49586597084999084,-0.22942456603050232
1670350775749360000,7.314360107421875,0.15445879101753235,0.006924014538526535,-0.34446972608566284
1670350775759285500,7.324285400390625,0.09161003679037094,-0.039946239441633224,-0.20279373228549957
1670350775769211000,7.3342109375,0.004127778112888336,-0.16351327300071716,0.05712312087416649
1670350775779136300,7.34413623046875,-0.041677240282297134,-0.48521363735198975,0.30745288729667664
1670350775789061400,7.354061279296875,-0.066177599132061,-0.7302172183990479,0.4928034245967865
1670350775798986800,7.36398681640625,-0.0981345921754837,-0.5874760150909424,0.5950657725334167
1670350775808912100,7.373912109375,-0.11837401986122131,-0.3520595133304596,0.5641740560531616
1670350775818837500,7.38383740234375,-0.11517832428216934,-0.2231663167476654,0.37882348895072937
1670350775828762600,7.3937626953125,-0.09706936031579971,-0.09959928691387177,0.08908011019229889
1670350775838688000,7.40368798828125,-0.058720968663692474,0.025032976642251015,-0.22303315997123718
1670350775848613400,7.41361328125,0.005193010903894901,0.0740336924791336,-0.5149070024490356
1670350775858538800,7.423538818359375,0.0745663121342659,0.07190322875976562,-0.7034532427787781
1670350775868463900,7.4334638671875,0.13315412402153015,-0.010119713842868805,-0.7471278309822083
1670350775878389200,7.44338916015625,0.1374150663614273,-0.137947678565979,-0.6640396118164062
1670350775888314600,7.453314697265625,0.09161003679037094,-0.22849248349666595,-0.4573844373226166
1670350775898240000,7.463239990234375,0.012649642303586006,-0.2764279842376709,-0.19320663809776306
1670350775908165000,7.4731650390625,-0.08322133123874664,-0.32436347007751465,0.03262276202440262
1670350775918090500,7.483090576171875,-0.1407439112663269,-0.39999499917030334,0.1732335239648819
1670350775928016000,7.493015869140625,-0.14713531732559204,-0.4894745647907257,0.2509955167770386
1670350775937941200,7.502941162109375,-0.15459194779396057,-0.5736280083656311,0.2914743721485138
1670350775947866400,7.512866455078125,-0.1631138026714325,-0.6226286888122559,0.2914743721485138
1670350775957791700,7.522791748046875,-0.15352670848369598,-0.6045197248458862,0.24993029236793518
1670350775967717000,7.532717041015625,-0.12370018661022186,-0.5161054134368896,0.17110306024551392
1670350775977642500,7.542642578125,-0.0778951644897461,-0.3936035931110382,0.06777545064687729
1670350775987567600,7.552567626953125,-0.029959678649902344,-0.30305880308151245,-0.03235645219683647
1670350775997493000,7.562492919921875,0.0009320789249613881,-0.23807957768440247,-0.10585752874612808
1670350776007418400,7.57241845703125,0.012649642303586006,-0.18375270068645477,-0.1346188187599182
1670350776017343700,7.58234375,0.0009320789249613881,-0.15712186694145203,-0.12077079713344574
1670350776027268900,7.592268798828125,-0.021437814459204674,-0.1688394397497177,-0.07922670245170593
1670350776037194200,7.6021943359375,-0.036351077258586884,-0.21784014999866486,-0.03661738336086273
1670350776047119600,7.61211962890625,-0.036351077258586884,-0.2785584330558777,-0.005725627299398184
1670350776057045000,7.622044921875,-0.026763979345560074,-0.32436347007751465,0.013448567129671574
1670350776066970000,7.63197021484375,-0.024633513763546944,-0.3520595133304596,0.02303566411137581
1670350776076895500,7.6418955078125,-0.03528584539890289,-0.36910325288772583,0.01877473294734955
1670350776086820900,7.65182080078125,-0.05232957378029823,-0.3605813682079315,-0.007856093347072601
1670350776096746200,7.661746337890625,-0.067242830991745,-0.3115806579589844,-0.04940018057823181
1670350776106671400,7.67167138671875,-0.066177599132061,-0.2870802879333496,-0.08029194176197052
1670350776116596700,7.6815966796875,-0.057655736804008484,-0.2881455421447754,-0.10266183316707611
1670350776126522000,7.691522216796875,-0.054460037499666214,-0.2870802879333496,-0.1037270650267601
1670350776136447500,7.701447509765625,-0.05232957378029823,-0.29134124517440796,-0.08348763734102249
1670350776146372600,7.71137255859375,-0.05232957378029823,-0.30518925189971924,-0.05792204663157463
1670350776156298000,7.721298095703125,-0.05659050494432449,-0.32542869448661804,-0.03235645219683647
1670350776166223400,7.731223388671875,-0.067242830991745,-0.3595161437988281,-0.006790860556066036
1670350776176148700,7.741148681640625,-0.09067796170711517,-0.38721221685409546,0.008122402243316174
1670350776186073900,7.751073974609375,-0.11091738939285278,-0.40106022357940674,0.0017310036346316338
1670350776195999200,7.760999267578125,-0.11411308497190475,-0.3744294047355652,-0.0238345880061388
1670350776205924600,7.770924560546875,-0.09600412845611572,-0.2870802879333496,-0.05685681104660034
1670350776215850000,7.78085009765625,-0.060851436108350754,-0.20505735278129578,-0.08561810106039047
1670350776225775000,7.790775146484375,-0.03528584539890289,-0.18801362812519073,-0.10692276805639267
1670350776235700500,7.800700439453125,-0.024633513763546944,-0.24234052002429962,-0.10585752874612808
1670350776245625900,7.8106259765625,-0.026763979345560074,-0.2977326214313507,-0.07816147059202194
1670350776255551200,7.82055126953125,-0.040612008422613144,-0.31371113657951355,-0.04407401755452156
1670350776265476400,7.830476318359375,-0.04593817517161369,-0.3201025128364563,-0.02063889056444168
1670350776275401700,7.840401611328125,-0.050199106335639954,-0.30199354887008667,-0.01744319126009941
1670350776285327000,7.8503271484375,-0.04274247586727142,-0.264710396528244,-0.02703028731048107
1670350776295252500,7.86025244140625,-0.029959678649902344,-0.2252967804670334,-0.039813082665205
1670350776305177600,7.870177490234375,-0.024633513763546944,-0.20079642534255981,-0.04513924941420555
1670350776315103000,7.88010302734375,-0.022503048181533813,-0.2125139832496643,-0.04620448127388954
1670350776325028400,7.8900283203125,-0.026763979345560074,-0.2252967804670334,-0.04194355010986328
1670350776334953700,7.89995361328125,-0.031024912372231483,-0.21997061371803284,-0.03661738336086273
1670350776344878800,7.90987890625,-0.03528584539890289,-0.19333979487419128,-0.03235645219683647
1670350776354804200,7.91980419921875,-0.040612008422613144,-0.17629607021808624,-0.03022598661482334
1670350776364729600,7.9297294921875,-0.033155377954244614,-0.1912093311548233,-0.02596505545079708
1670350776374655000,7.939655029296875,-0.029959678649902344,-0.16670896112918854,-0.02703028731048107
1670350776384580000,7.949580078125,-0.019307348877191544,-0.1390129029750824,-0.02703028731048107
1670350776394505500,7.95950537109375,-0.013981183059513569,-0.1294258087873459,-0.02703028731048107
1670350776404430800,7.969430908203125,-0.015046416781842709,-0.1059906855225563,-0.03129122033715248
1670350776414356200,7.979356201171875,-0.010785484686493874,-0.0846860259771347,-0.03555215150117874
1670350776424281300,7.98928125,-0.004394086077809334,-0.06870753318071365,-0.04087831825017929
1670350776434206700,7.999206787109375,0.0030625448562204838,-0.0633813664317131,-0.05153064802289009
1670350776444132000,8.009132080078125,0.009453942999243736,-0.0740336924791336,-0.06644391268491745
1670350776454057500,8.019057373046875,0.010519175790250301,-0.06657706201076508,-0.0824224054813385
1670350776463982800,8.02898291015625,0.010519175790250301,-0.053794268518686295,-0.08987903594970703
1670350776473908200,8.038908203125,0.011584409512579441,-0.051663801074028015,-0.09094426780939102
1670350776483833600,8.04883349609375,0.008388710208237171,-0.0633813664317131,-0.08987903594970703
1670350776493758700,8.0587587890625,-0.0001331541279796511,-0.06551183015108109,-0.08668334037065506
1670350776503684000,8.06868408203125,-0.005459319334477186,-0.054859500378370285,-0.07603100687265396
1670350776513609500,8.078609375,-0.007589785382151604,-0.041011471301317215,-0.06324820965528488
1670350776523534800,8.088534912109376,-0.012915950268507004,-0.050598569214344025,-0.05685681104660034
1670350776533460200,8.098460205078124,-0.015046416781842709,-0.06870753318071365,-0.0504654161632061
1670350776543385600,8.108385498046875,-0.021437814459204674,-0.07616416364908218,-0.04833494871854782
1670350776553311000,8.11831103515625,-0.027829213067889214,-0.0740336924791336,-0.04726971685886383
1670350776563236400,8.128236328125,-0.026763979345560074,-0.0740336924791336,-0.05153064802289009
1670350776573161700,8.13816162109375,-0.020372580736875534,-0.0740336924791336,-0.05792204663157463
1670350776583087000,8.148087158203126,-0.017176883295178413,-0.060185667127370834,-0.06431344151496887
1670350776593012500,8.158012451171874,-0.008655018173158169,-0.054859500378370285,-0.06537867337465286
1670350776602937900,8.167937744140625,-0.004394086077809334,-0.053794268518686295,-0.0611177459359169
1670350776612863200,8.17786328125,-0.0001331541279796511,-0.034620072692632675,-0.04513924941420555
1670350776622788600,8.18778857421875,0.007323476951569319,-0.026098208501935005,-0.03022598661482334
1670350776632714000,8.1977138671875,0.010519175790250301,-0.027163442224264145,-0.02703028731048107
1670350776642639400,8.207639404296875,0.010519175790250301,-0.021837277337908745,-0.02170412242412567
1670350776652564700,8.217564697265624,0.009453942999243736,-0.00585878174751997,-0.015312724746763706
1670350776662490000,8.227489990234375,0.010519175790250301,-0.0037283156998455524,-0.012117025442421436
1670350776672415500,8.23741552734375,0.014780107885599136,-0.00905448105186224,-0.01957365684211254
1670350776682340900,8.2473408203125,0.01704372838139534,-0.006924014538526535,-0.02809552103281021
1670350776692266200,8.257266357421875,0.015845341607928276,-0.01118494663387537,-0.03342168778181076
1670350776702191600,8.267191650390625,0.010519175790250301,-0.036750540137290955,-0.03342168778181076
1670350776712116700,8.27711669921875,0.0030625448562204838,-0.054859500378370285,-0.03342168778181076
1670350776722042000,8.2870419921875,-0.0001331541279796511,-0.041011471301317215,-0.02489982172846794
1670350776731967500,8.296967529296875,-0.00226362026296556,-0.029293907806277275,-0.01957365684211254
1670350776741892900,8.306892822265626,-0.005459319334477186,-0.026098208501935005,-0.02170412242412567
1670350776751818200,8.316818359375,-0.00226362026296556,-0.044207170605659485,-0.01637795753777027
1670350776761743600,8.32674365234375,0.0009320789249613881,-0.034620072692632675,-0.02703028731048107
1670350776771669000,8.3366689453125,0.010519175790250301,-0.025032976642251015,-0.04194355010986328
1670350776781594400,8.346594482421875,0.01704372838139534,-0.027163442224264145,-0.05685681104660034
1670350776791519700,8.356519775390625,0.01704372838139534,-0.027163442224264145,-0.06431344151496887
1670350776801445000,8.366445068359376,0.014780107885599136,-0.058055199682712555,-0.06431344151496887
1670350776811370500,8.37637060546875,0.012649642303586006,-0.044207170605659485,-0.06537867337465286
1670350776821295900,8.3862958984375,0.01704372838139534,-0.025032976642251015,-0.06644391268491745
1670350776831221000,8.396220947265626,0.01917419396340847,-0.019706811755895615,-0.06218297779560089
1670350776841146400,8.406146484375,0.01917419396340847,-0.023967742919921875,-0.04940018057823181
1670350776851071700,8.41607177734375,0.0213046595454216,-0.022902509197592735,-0.03342168778181076
1670350776860997000,8.4259970703125,0.02556559257209301,-0.020772043615579605,-0.01744319126009941
1670350776870922200,8.435922119140624,0.02450035884976387,-0.021837277337908745,-0.008921326138079166
1670350776880847600,8.44584765625,0.02450035884976387,-0.023967742919921875,-0.009986559860408306
1670350776890773000,8.45577294921875,0.03089175745844841,-0.016511112451553345,-0.01744319126009941
1670350776900698400,8.465698486328124,0.03621792420744896,0.0037283156998455524,-0.0238345880061388
1670350776910623500,8.47562353515625,0.03834838792681694,0.020772043615579605,-0.0238345880061388
1670350776920548900,8.485548828125,0.03302222490310669,0.018641578033566475,-0.01744319126009941
1670350776930474200,8.49547412109375,0.01810896210372448,0.0005326165119186044,-0.014247491955757141
1670350776940399600,8.505399658203125,0.008388710208237171,-0.0026630824431777,-0.014247491955757141
1670350776950324700,8.51532470703125,0.012649642303586006,0.0005326165119186044,-0.02063889056444168
1670350776960250000,8.52525,0.0213046595454216,0.0026630824431777,-0.02489982172846794
1670350776970175500,8.535175537109374,0.02556559257209301,0.006924014538526535,-0.01957365684211254
1670350776980100900,8.545100830078125,0.0319569893181324,0.020772043615579605,-0.012117025442421436
1670350776990026000,8.55502587890625,0.03834838792681694,0.030359141528606415,-0.012117025442421436
1670350776999951400,8.564951416015624,0.04793548583984375,0.027163442224264145,-0.013182258233428001
1670350777009876700,8.574876708984375,0.04900071769952774,0.010119713842868805,-0.011051792651414871
1670350777019802000,8.584802001953125,0.04047885537147522,0.0005326165119186044,-0.00359516148455441
1670350777029727200,8.594727294921874,0.03408745676279068,0.0037283156998455524,0.009187635034322739
1670350777039652600,8.604652587890625,0.02876129187643528,0.0026630824431777,0.012383334338665009
1670350777049578000,8.614577880859375,0.02450035884976387,0.00905448105186224,0.012383334338665009
1670350777059503400,8.62450341796875,0.02236989326775074,0.019706811755895615,0.010252867825329304
1670350777069428500,8.634428466796875,0.02343512699007988,0.023967742919921875,0.005991935729980469
1670350777079353900,8.644353759765625,0.02876129187643528,0.013315413147211075,-0.0014646954368799925
1670350777089279200,8.654279296875,0.03089175745844841,0.0026630824431777,-0.014247491955757141
1670350777099204600,8.66420458984375,0.03089175745844841,-0.00585878174751997,-0.02063889056444168
1670350777109129700,8.674129638671875,0.02769605815410614,-0.0079892473295331,-0.0238345880061388
1670350777119055000,8.68405517578125,0.02556559257209301,0.0005326165119186044,-0.01744319126009941
1670350777128980500,8.69398046875,0.02236989326775074,0.0047935484908521175,-0.009986559860408306
1670350777138905900,8.70390576171875,0.01704372838139534,0.01118494663387537,-0.009986559860408306
1670350777148831000,8.7138310546875,0.015845341607928276,0.019706811755895615,-0.005725627299398184
1670350777158756400,8.72375634765625,0.01704372838139534,0.022902509197592735,-0.0025299284607172012
1670350777168681700,8.733681640625,0.0213046595454216,0.026098208501935005,-0.0014646954368799925
1670350777178607000,8.743607177734376,0.02556559257209301,0.030359141528606415,-0.00359516148455441
1670350777188532200,8.7535322265625,0.02663082629442215,0.026098208501935005,-0.005725627299398184
1670350777198457600,8.76345751953125,0.02236989326775074,0.022902509197592735,-0.00359516148455441
1670350777208383000,8.773383056640625,0.01704372838139534,0.00905448105186224,-0.0003994623839389533
1670350777218308400,8.783308349609374,0.007323476951569319,-0.0037283156998455524,0.0027962366584688425
1670350777228233500,8.7932333984375,0.001997311832383275,0.0037283156998455524,0.004926702938973904
1670350777238158800,8.803158935546875,0.0030625448562204838,0.0047935484908521175,-0.0014646954368799925
1670350777248084200,8.813084228515624,0.004127778112888336,0.0015978495357558131,-0.009986559860408306
1670350777258009600,8.823009521484375,0.004127778112888336,0.0079892473295331,-0.006790860556066036
1670350777267934700,8.832934814453125,0.0030625448562204838,0.027163442224264145,0.007057168986648321
1670350777277860000,8.842860107421876,0.009453942999243736,0.038881003856658936,0.02303566411137581
1670350777287785500,8.852785400390625,0.014780107885599136,0.037815771996974945,0.0347532257437706
1670350777297710800,8.8627109375,0.012649642303586006,0.041011471301317215,0.04114462435245514
1670350777307636000,8.872635986328126,0.009453942999243736,0.025032976642251015,0.04220985993742943
1670350777317561300,8.882561279296874,0.0009320789249613881,-0.00905448105186224,0.03049229457974434
1670350777327486700,8.89248681640625,-0.006524552125483751,-0.028228675946593285,0.015579032711684704
1670350777337412000,8.902412109375,-0.011850717477500439,-0.044207170605659485,-0.00359516148455441
1670350777347337200,8.912337158203124,-0.021437814459204674,-0.10172975063323975,-0.012117025442421436
1670350777357262600,8.9222626953125,-0.0555252730846405,-0.2881455421447754,0.11677616834640503
1670350777367188000,8.93218798828125,-0.1194392517209053,-0.15179570019245148,0.05499265342950821
1670350777377113300,8.94211328125,-0.060851436108350754,-0.042076703161001205,-0.01957365684211254
1670350777387038500,8.95203857421875,0.02876129187643528,0.08149032294750214,-0.05259587988257408
1670350777396963800,8.9619638671875,0.07350108027458191,0.16351327300071716,-0.05685681104660034
1670350777406889200,8.97188916015625,0.08734910935163498,0.19653549790382385,-0.0185084231197834
1670350777416814600,8.981814697265625,0.0639139786362648,0.11557777971029282,0.04753602296113968
1670350777426740000,8.991739990234375,0.015845341607928276,0.020772043615579605,0.07203638553619385
1670350777436665300,9.001665283203126,-0.0001331541279796511,-0.018641578033566475,0.0347532257437706
1670350777446590700,9.0115908203125,0.001997311832383275,-0.028228675946593285,-0.02809552103281021
1670350777456516000,9.02151611328125,0.005193010903894901,-0.029293907806277275,-0.06963960826396942
1670350777466441500,9.03144140625,-0.006524552125483751,-0.039946239441633224,-0.07709623873233795
1670350777476366800,9.041366943359375,-0.028894444927573204,-0.038881003856658936,-0.05792204663157463
1670350777486292200,9.051292236328125,-0.036351077258586884,-0.012250179424881935,-0.02809552103281021
1670350777496217600,9.061217529296876,-0.028894444927573204,0.010119713842868805,-0.004660394508391619
1670350777506143000,9.07114306640625,-0.015046416781842709,0.00905448105186224,0.015579032711684704
1670350777516068000,9.081068115234375,-0.009720250964164734,-0.0037283156998455524,0.03262276202440262
1670350777525993500,9.090993408203126,-0.010785484686493874,-0.006924014538526535,0.03688369318842888
1670350777535918800,9.1009189453125,-0.005459319334477186,-0.016511112451553345,0.02942706272006035
1670350777545844200,9.11084423828125,0.001997311832383275,-0.037815771996974945,0.008122402243316174
1670350777555769600,9.12076953125,-0.0001331541279796511,-0.062316130846738815,-0.02063889056444168
1670350777565695000,9.130695068359374,-0.005459319334477186,-0.06977276504039764,-0.039813082665205
1670350777575620400,9.140620361328125,-0.010785484686493874,-0.058055199682712555,-0.04194355010986328
1670350777585545700,9.150545654296875,-0.013981183059513569,-0.043141938745975494,-0.0238345880061388
1670350777595471000,9.16047119140625,-0.024633513763546944,-0.029293907806277275,0.0038614696823060513
1670350777605396500,9.170396484375,-0.03954677656292915,-0.01438064593821764,0.03049229457974434
1670350777615321900,9.18032177734375,-0.04913387447595596,0.0047935484908521175,0.05499265342950821
1670350777625247200,9.190247314453124,-0.050199106335639954,0.00585878174751997,0.06884068250656128
1670350777635172600,9.200172607421875,-0.047003407031297684,-0.015445878729224205,0.06990591436624527
1670350777645098000,9.210097900390625,-0.047003407031297684,-0.048468101769685745,0.05286218971014023
1670350777655023400,9.2200234375,-0.051264338195323944,-0.0846860259771347,0.02197043038904667
1670350777664948700,9.22994873046875,-0.05659050494432449,-0.1603175699710846,-0.013182258233428001
1670350777674874000,9.2398740234375,-0.05232957378029823,-0.2956021726131439,-0.03768261894583702
1670350777684799500,9.249799560546874,-0.07896039634943008,-0.37762510776519775,-0.04620448127388954
1670350777694724900,9.259724853515625,-0.10985215753316879,-0.4053211510181427,-0.0238345880061388
1670350777704650200,9.269650146484375,-0.1290263533592224,-0.4063864052295685,0.008122402243316174
1670350777714575600,9.27957568359375,-0.1205044835805893,-0.40958210825920105,0.03368799388408661
1670350777724501000,9.2895009765625,-0.08109086751937866,-0.4031907021999359,0.04753602296113968
1670350777734426000,9.299426025390625,-0.027829213067889214,-0.4021254777908325,0.04434032365679741
1670350777744351500,9.3093515625,0.02769605815410614,-0.4053211510181427,0.04007939249277115
1670350777754276900,9.31927685546875,0.08202294260263443,-0.4127778112888336,0.04647079110145569
1670350777764202200,9.3292021484375,0.12569749355316162,-0.40106022357940674,0.05818835273385048
1670350777774127600,9.339127685546876,0.15232832729816437,-0.36484232544898987,0.05286218971014023
1670350777784053000,9.349052978515624,0.16830681264400482,-0.3286243975162506,0.04007939249277115
1670350777793978400,9.358978271484375,0.16298064589500427,-0.28281936049461365,0.04860125854611397
1670350777803903700,9.36890380859375,0.11930610239505768,-0.22103585302829742,0.09440627694129944
1670350777813829000,9.3788291015625,0.04900071769952774,-0.2231663167476654,0.15512455999851227
1670350777823754500,9.38875439453125,0.0213046595454216,-0.2774932086467743,0.16577689349651337
1670350777833680000,9.398679931640626,0.03728315606713295,-0.31584158539772034,0.1316894292831421
1670350777843605200,9.408605224609374,0.04580501839518547,-0.2987978756427765,0.10079767554998398
1670350777853530600,9.418530517578125,0.03515268862247467,-0.245536208152771,0.07629731297492981
1670350777863456000,9.4284560546875,0.02663082629442215,-0.21784014999866486,0.06031882017850876
1670350777873381400,9.43838134765625,0.02236989326775074,-0.22103585302829742,0.04966649040579796
1670350777883306800,9.448306640625,0.012649642303586006,-0.2146444469690323,0.0347532257437706
1670350777893232000,9.458232177734375,0.005193010903894901,-0.21677492558956146,0.02516612969338894
1670350777903157200,9.4681572265625,-0.009720250964164734,-0.2231663167476654,0.01664426550269127
1670350777913082600,9.47808251953125,-0.033155377954244614,-0.22955772280693054,0.014513799920678139
1670350777923008000,9.488008056640625,-0.047003407031297684,-0.245536208152771,0.01770949922502041
1670350777932933400,9.497933349609376,-0.05659050494432449,-0.23062294721603394,0.015579032711684704
1670350777942858500,9.5078583984375,-0.057655736804008484,-0.20825305581092834,-0.0014646954368799925
1670350777952784000,9.517783935546875,-0.04274247586727142,-0.1912093311548233,-0.01744319126009941
1670350777962709200,9.527709228515626,-0.026763979345560074,-0.19866596162319183,-0.03874785080552101
1670350777972634600,9.537634521484375,-0.015046416781842709,-0.22636201977729797,-0.07070484012365341
1670350777982559700,9.547559814453125,-0.011850717477500439,-0.2551233172416687,-0.09733566641807556
1670350777992485000,9.557485107421876,-0.024633513763546944,-0.2657756507396698,-0.09733566641807556
1670350778002410500,9.567410400390624,-0.048068638890981674,-0.26044946908950806,-0.06750914454460144
1670350778012335900,9.5773359375,-0.07469946891069412,-0.2529928386211395,-0.0185084231197834
1670350778022261000,9.587260986328126,-0.0981345921754837,-0.24340574443340302,0.04220985993742943
1670350778032186400,9.597186279296874,-0.11517832428216934,-0.2252967804670334,0.09760197252035141
1670350778042111700,9.60711181640625,-0.12583065032958984,-0.20718781650066376,0.12210233509540558
1670350778052037000,9.617037109375,-0.12689588963985443,-0.2114487588405609,0.11358047276735306
1670350778061962200,9.626962158203124,-0.11304785311222076,-0.2029268890619278,0.08481918275356293
1670350778071887600,9.6368876953125,-0.09067796170711517,-0.1390129029750824,0.05073172226548195
1670350778081813000,9.64681298828125,-0.0778951644897461,-0.058055199682712555,0.02623136341571808
1670350778091738400,9.65673828125,-0.0778951644897461,-0.029293907806277275,0.0027962366584688425
1670350778101663500,9.66666357421875,-0.06404713541269302,0.01118494663387537,-0.02063889056444168
1670350778111588900,9.6765888671875,-0.047003407031297684,0.061250898987054825,-0.04087831825017929
1670350778121514200,9.68651416015625,-0.026763979345560074,0.08255556225776672,-0.05898727849125862
1670350778131439600,9.696439697265625,-0.011850717477500439,0.09853405505418777,-0.0611177459359169
1670350778141364700,9.70636474609375,-0.022503048181533813,0.11451254785060883,-0.03129122033715248
1670350778151290000,9.7162900390625,-0.0555252730846405,0.11344731599092484,0.005991935729980469
1670350778161215500,9.726215576171874,-0.08428656309843063,0.12409964948892593,0.03049229457974434
1670350778171140900,9.736140869140625,-0.09067796170711517,0.1070559173822403,0.01770949922502041
1670350778181066000,9.74606591796875,-0.061916667968034744,0.09107742458581924,-0.03448691964149475
1670350778190991400,9.755991455078124,-0.018242115154862404,0.0964035913348198,-0.07816147059202194
1670350778200916700,9.765916748046875,0.0009320789249613881,0.0964035913348198,-0.1037270650267601
1670350778210842000,9.775842041015625,-0.012915950268507004,0.06870753318071365,-0.11650986224412918
1670350778220767200,9.785767333984374,-0.040612008422613144,0.038881003856658936,-0.11650986224412918
1670350778230692600,9.795692626953125,-0.07363422960042953,0.028228675946593285,-0.11224892735481262
1670350778240618000,9.805617919921875,-0.10665645450353622,0.047402869910001755,-0.09627043455839157
1670350778250543400,9.81554345703125,-0.12476541846990585,0.059120431542396545,-0.08348763734102249
1670350778260468500,9.825468505859375,-0.11837401986122131,0.09001219272613525,-0.08348763734102249
1670350778270393900,9.835393798828125,-0.10346075892448425,0.137947678565979,-0.09627043455839157
1670350778280319200,9.8453193359375,-0.10133028775453568,0.18481792509555817,-0.11757509410381317
1670350778290244600,9.85524462890625,-0.11730878800153732,0.2029268890619278,-0.14953207969665527
1670350778300169700,9.865169677734375,-0.13861344754695892,0.19973118603229523,-0.18468476831912994
1670350778310095000,9.87509521484375,-0.1737661361694336,0.17949175834655762,-0.21770699322223663
1670350778320020500,9.8850205078125,-0.22063638269901276,0.15392617881298065,-0.23901166021823883
1670350778329945900,9.89494580078125,-0.26324570178985596,0.13581721484661102,-0.2432725876569748
1670350778339871200,9.904871337890626,-0.28241991996765137,0.11877348273992538,-0.22942456603050232
1670350778349796600,9.914796630859374,-0.2696371078491211,0.1166430190205574,-0.20492419600486755
1670350778359722000,9.924721923828125,-0.2366148829460144,0.13049104809761047,-0.17509767413139343
1670350778369647400,9.9346474609375,-0.19720126688480377,0.1496652364730835,-0.1452711522579193
1670350778379572700,9.94457275390625,-0.16630950570106506,0.16670896112918854,-0.10798799991607666
1670350778389498000,9.954498046875,-0.1418091505765915,0.15499140322208405,-0.06750914454460144
1670350778399423500,9.964423583984376,-0.13861344754695892,0.1177082508802414,-0.03342168778181076
1670350778409348900,9.974348876953124,-0.16098333895206451,0.0633813664317131,-0.005725627299398184
1670350778419274200,9.984274169921875,-0.19187510013580322,0.020772043615579605,0.02090519852936268
1670350778429199600,9.99419970703125,-0.21104928851127625,0.01118494663387537,0.04647079110145569
1670350778439125000,10.004125,-0.20678836107254028,0.022902509197592735,0.06244928762316704
1670350778449050400,10.01405029296875,-0.1833532303571701,0.037815771996974945,0.06564498692750931
1670350778458975500,10.0239755859375,-0.14713531732559204,0.054859500378370285,0.06138405203819275
1670350778468900900,10.03390087890625,-0.10985215753316879,0.08681648969650269,0.05179695412516594
1670350778478826200,10.043826171875,-0.06830807030200958,0.11131685227155685,0.03688369318842888
1670350778488751600,10.053751708984375,-0.025698747485876083,0.11344731599092484,0.02836182899773121
1670350778498677000,10.063677001953126,0.013714875094592571,0.09853405505418777,0.02303566411137581
1670350778508602400,10.073602294921875,0.03834838792681694,0.08149032294750214,0.02410089783370495
1670350778518527700,10.08352783203125,0.04473978653550148,0.08255556225776672,0.04220985993742943
1670350778528453000,10.093453125,0.03728315606713295,0.11238208413124084,0.05925358831882477
1670350778538378500,10.10337841796875,0.03621792420744896,0.11344731599092484,0.0667102187871933
1670350778548304000,10.113303955078125,0.03089175745844841,0.10066451877355576,0.06351451575756073
1670350778558229200,10.123229248046876,0.015845341607928276,0.07935985922813416,0.07310161739587784
1670350778568154600,10.133154541015625,-0.0001331541279796511,0.045272402465343475,0.08908011019229889
1670350778578080000,10.143080078125,-0.017176883295178413,0.028228675946593285,0.09547150880098343
1670350778588005400,10.15300537109375,-0.029959678649902344,0.01118494663387537,0.08908011019229889
1670350778597930800,10.1629306640625,-0.037416309118270874,-0.0047935484908521175,0.06351451575756073
1670350778607856000,10.172856201171875,-0.034220609813928604,-0.0047935484908521175,0.04220985993742943
1670350778617781500,10.182781494140626,-0.019307348877191544,0.00905448105186224,0.02623136341571808
1670350778627707000,10.192706787109374,-0.010785484686493874,0.016511112451553345,0.004926702938973904
1670350778637632300,10.20263232421875,-0.011850717477500439,-0.0026630824431777,-0.0025299284607172012
1670350778647557600,10.2125576171875,-0.025698747485876083,-0.048468101769685745,0.014513799920678139
1670350778657483000,10.22248291015625,-0.048068638890981674,-0.0846860259771347,0.04434032365679741
1670350778667408400,10.232408447265625,-0.058720968663692474,-0.08042509108781815,0.06777545064687729
1670350778677333500,10.24233349609375,-0.050199106335639954,-0.053794268518686295,0.07310161739587784
1670350778687259000,10.2522587890625,-0.03209014609456062,-0.037815771996974945,0.06138405203819275
1670350778697184300,10.262184326171875,-0.015046416781842709,-0.018641578033566475,0.04114462435245514
1670350778707109600,10.272109619140625,-0.012915950268507004,0.0079892473295331,0.01877473294734955
1670350778717035000,10.282034912109374,-0.015046416781842709,-0.0005326165119186044,0.010252867825329304
1670350778726960400,10.29196044921875,-0.022503048181533813,-0.032489608973264694,0.015579032711684704
1670350778736885800,10.3018857421875,-0.03954677656292915,-0.058055199682712555,0.02410089783370495
1670350778746811100,10.31181103515625,-0.05232957378029823,-0.07616416364908218,0.03581846132874489
1670350778756736500,10.321736572265625,-0.05659050494432449,-0.08149032294750214,0.04753602296113968
1670350778766662000,10.331661865234375,-0.061916667968034744,-0.060185667127370834,0.06351451575756073
1670350778776587300,10.341587158203126,-0.05659050494432449,-0.047402869910001755,0.08481918275356293
1670350778786512600,10.3515126953125,-0.04593817517161369,-0.055924732238054276,0.1093195378780365
1670350778796438000,10.36143798828125,-0.044872939586639404,-0.051663801074028015,0.12210233509540558
1670350778806363400,10.37136328125,-0.04593817517161369,-0.043141938745975494,0.11251524090766907
1670350778816288800,10.381288818359375,-0.037416309118270874,-0.047402869910001755,0.08481918275356293
1670350778826214100,10.391214111328125,-0.025698747485876083,-0.050598569214344025,0.05286218971014023
1670350778836139500,10.401139404296876,-0.025698747485876083,-0.034620072692632675,0.02410089783370495
1670350778846065000,10.41106494140625,-0.029959678649902344,-0.026098208501935005,0.008122402243316174
1670350778855990300,10.420990234375,-0.03528584539890289,-0.048468101769685745,0.008122402243316174
1670350778865915600,10.43091552734375,-0.044872939586639404,-0.058055199682712555,0.011318100616335869
1670350778875841000,10.440841064453124,-0.0555252730846405,-0.045272402465343475,0.012383334338665009
1670350778885766400,10.450766357421875,-0.05232957378029823,-0.047402869910001755,0.01664426550269127
1670350778895691800,10.46069189453125,-0.041677240282297134,-0.056989967823028564,0.02836182899773121
1670350778905617000,10.470616943359374,-0.044872939586639404,-0.050598569214344025,0.04647079110145569
1670350778915542300,10.480542236328125,-0.04913387447595596,-0.041011471301317215,0.07310161739587784
1670350778925467600,10.490467529296875,-0.058720968663692474,-0.028228675946593285,0.09227581322193146
1670350778935393000,10.50039306640625,-0.060851436108350754,-0.026098208501935005,0.10186290740966797
1670350778945318400,10.510318359375,-0.05978620424866676,-0.018641578033566475,0.09973244369029999
1670350778955243800,10.520243896484375,-0.048068638890981674,0.0026630824431777,0.0773625448346138
1670350778965169200,10.530169189453124,-0.03528584539890289,0.021837277337908745,0.0347532257437706
1670350778975094500,10.540094482421875,-0.017176883295178413,0.026098208501935005,-0.01957365684211254
1670350778985020000,10.55002001953125,-0.006524552125483751,0.0047935484908521175,-0.06005251035094261
1670350778994945300,10.5599453125,-0.012915950268507004,-0.038881003856658936,-0.06218297779560089
1670350779004870700,10.56987060546875,-0.036351077258586884,-0.08255556225776672,-0.03661738336086273
1670350779014796000,10.579796142578125,-0.054460037499666214,-0.09001219272613525,-0.013182258233428001
1670350779024721400,10.589721435546876,-0.044872939586639404,-0.039946239441633224,-0.009986559860408306
1670350779034646800,10.599646728515625,-0.004394086077809334,0.054859500378370285,-0.02276935614645481
1670350779044572200,10.609572265625,0.04473978653550148,0.10172975063323975,-0.02703028731048107
1670350779054497300,10.619497314453126,0.0639139786362648,0.11877348273992538,-0.009986559860408306
1670350779064422700,10.629422607421875,0.06178351491689682,0.12196917831897736,0.01877473294734955
1670350779074348000,10.63934814453125,0.06071828305721283,0.13368675112724304,0.03794892504811287
1670350779084273400,10.6492734375,0.06710968166589737,0.14540430903434753,0.01877473294734955
1670350779094198500,10.659198486328124,0.08841434121131897,0.1581871062517166,-0.04087831825017929
1670350779104124000,10.6691240234375,0.11930610239505768,0.20931829512119293,-0.12929265201091766
1670350779114049300,10.67904931640625,0.1384802907705307,0.22636201977729797,-0.2198374718427658
1670350779123974700,10.688974609375,0.13634982705116272,0.15179570019245148,-0.25818586349487305
1670350779133899800,10.698899658203125,0.10226237028837204,0.046337638050317764,-0.1900109350681305
1670350779143825200,10.7088251953125,0.04154408723115921,0.006924014538526535,-0.06005251035094261
1670350779153750500,10.71875048828125,-0.007589785382151604,0.038881003856658936,0.04647079110145569
1670350779163676000,10.728676025390625,0.009453942999243736,0.10066451877355576,0.10825430601835251
1670350779173601000,10.73860107421875,0.05432688444852829,0.14433906972408295,0.15725502371788025
1670350779183526400,10.7485263671875,0.07137060910463333,0.19014409184455872,0.20092958211898804
1670350779193451800,10.75845166015625,0.07350108027458191,0.23275341093540192,0.22436471283435822
1670350779203377200,10.768377197265625,0.07989247888326645,0.245536208152771,0.19773387908935547
1670350779213302300,10.77830224609375,0.08947957307100296,0.22742724418640137,0.1519288569688797
1670350779223227600,10.7882275390625,0.08415340632200241,0.18694838881492615,0.12316756695508957
1670350779233153000,10.798153076171875,0.06178351491689682,0.15286093950271606,0.10186290740966797
1670350779243078400,10.808078369140626,0.04367455467581749,0.13581721484661102,0.06564498692750931
1670350779253003500,10.81800341796875,0.03515268862247467,0.11025162041187286,0.01664426550269127
1670350779262929000,10.827928955078125,0.02982652559876442,0.033554840832948685,-0.02276935614645481
1670350779272854300,10.837854248046876,0.013714875094592571,-0.016511112451553345,-0.02916075475513935
1670350779282779600,10.847779541015624,0.004127778112888336,0.012250179424881935,-0.012117025442421436
1670350779292704800,10.857704833984375,0.010519175790250301,0.037815771996974945,-0.005725627299398184
1670350779302630100,10.867630126953125,0.02023942768573761,0.017576344311237335,-0.012117025442421436
1670350779312555500,10.877555419921874,0.007323476951569319,-0.006924014538526535,-0.013182258233428001
1670350779322481000,10.88748095703125,-0.005459319334477186,-0.012250179424881935,-0.006790860556066036
1670350779332406000,10.897406005859375,-0.010785484686493874,-0.01118494663387537,-0.009986559860408306
1670350779342331400,10.907331298828124,-0.008655018173158169,-0.013315413147211075,-0.02170412242412567
1670350779352256800,10.9172568359375,0.0009320789249613881,-0.020772043615579605,-0.03129122033715248
1670350779362182100,10.92718212890625,0.0009320789249613881,-0.026098208501935005,-0.02809552103281021
1670350779372107500,10.937107421875,-0.009720250964164734,-0.07616416364908218,0.01664426550269127
1670350779382033000,10.947032958984375,-0.033155377954244614,-0.07190322875976562,0.011318100616335869
1670350779391958300,10.956958251953125,-0.033155377954244614,-0.0964035913348198,0.02516612969338894
1670350779401883600,10.966883544921876,-0.033155377954244614,-0.1262301206588745,0.09973244369029999
1670350779411809000,10.97680908203125,-0.04593817517161369,-0.07616416364908218,0.13701559603214264
1670350779421734400,10.986734375,-0.033155377954244614,0.01118494663387537,0.11358047276735306
1670350779431659800,10.99665966796875,-0.0033288532868027687,0.10386022180318832,0.02623136341571808
1670350779441585200,11.006585205078125,0.04367455467581749,0.16670896112918854,-0.05579157918691635
1670350779451510500,11.016510498046875,0.08628387749195099,0.22103585302829742,-0.07922670245170593
1670350779461435600,11.026435546875,0.10865376889705658,0.23168818652629852,-0.06537867337465286
1670350779471361000,11.036361083984374,0.11611039936542511,0.1805569976568222,-0.04087831825017929
1670350779481286400,11.046286376953125,0.11291470378637314,0.15712186694145203,-0.05792204663157463
1670350779491211800,11.056211669921876,0.11397993564605713,0.17949175834655762,-0.11224892735481262
1670350779501137200,11.06613720703125,0.12250179797410965,0.19866596162319183,-0.15485824644565582
1670350779511062500,11.0760625,0.12995843589305878,0.2125139832496643,-0.1367492824792862
1670350779520988000,11.08598779296875,0.13102366030216217,0.222101092338562,-0.05579157918691635
1670350779530913300,11.095913330078124,0.11184946447610855,0.21890538930892944,0.02516612969338894
1670350779540838700,11.105838623046875,0.10226237028837204,0.20825305581092834,0.09547150880098343
1670350779550764000,11.115763916015625,0.0958709716796875,0.15073047578334808,0.20945143699645996
1670350779560689400,11.125689453125,0.08947957307100296,0.037815771996974945,0.13381989300251007
1670350779570614800,11.13561474609375,0.0639139786362648,0.016511112451553345,0.009187635034322739
1670350779580540200,11.1455400390625,0.05432688444852829,0.06551183015108109,-0.04087831825017929
1670350779590465500,11.155465576171874,0.06178351491689682,0.06870753318071365,-0.04087831825017929
1670350779600391000,11.165390869140625,0.05645735189318657,0.027163442224264145,-0.02170412242412567
1670350779610316300,11.17531640625,0.0213046595454216,-0.017576344311237335,0.009187635034322739
1670350779620241700,11.18524169921875,-0.026763979345560074,-0.015445878729224205,0.008122402243316174
1670350779630167000,11.1951669921875,-0.04593817517161369,0.0026630824431777,-0.04833494871854782
1670350779640092400,11.205092529296875,-0.029959678649902344,-0.010119713842868805,-0.11224892735481262
1670350779650017800,11.215017822265626,-0.005459319334477186,-0.036750540137290955,-0.10905323177576065
1670350779659943200,11.224943115234375,-0.013981183059513569,-0.06870753318071365,-0.039813082665205
1670350779669868500,11.23486865234375,-0.051264338195323944,-0.17416560649871826,0.05925358831882477
1670350779679793700,11.244793701171876,-0.11304785311222076,-0.3967992961406708,0.1849510818719864
1670350779689719000,11.254718994140624,-0.2057231217622757,-0.41171255707740784,0.30638766288757324
1670350779699644400,11.26464453125,-0.23448441922664642,-0.14007814228534698,0.1934729516506195
1670350779709569800,11.27456982421875,-0.14287437498569489,-0.058055199682712555,0.08481918275356293
1670350779719495200,11.2844951171875,-0.057655736804008484,0.00905448105186224,0.010252867825329304
1670350779729420500,11.294420654296875,-0.023568280041217804,0.036750540137290955,0.04434032365679741
1670350779739346000,11.304345947265626,-0.048068638890981674,0.033554840832948685,0.12742850184440613
1670350779749271300,11.314271240234374,-0.09067796170711517,0.01118494663387537,0.15725502371788025
1670350779759196700,11.32419677734375,-0.11730878800153732,-0.042076703161001205,0.11571093648672104
1670350779769122000,11.3341220703125,-0.14287437498569489,-0.08255556225776672,0.03368799388408661
1670350779779047400,11.34404736328125,-0.17589659988880157,-0.1059906855225563,-0.039813082665205
1670350779788972800,11.353972900390625,-0.22383208572864532,-0.16564373672008514,-0.05472634732723236
1670350779798898200,11.363898193359375,-0.27602851390838623,-0.24873191118240356,-0.005725627299398184
1670350779808823600,11.373823486328124,-0.30798548460006714,-0.2860150635242462,0.07310161739587784
1670350779818749000,11.3837490234375,-0.31650736927986145,-0.2753627300262451,0.12316756695508957
1670350779828674300,11.39367431640625,-0.29520270228385925,-0.27216702699661255,0.12742850184440613
1670350779838599700,11.403599609375,-0.2557890713214874,-0.24766667187213898,0.098667211830616
1670350779848525000,11.413525146484375,-0.20891882479190826,-0.1922745555639267,0.04647079110145569
1670350779858450400,11.423450439453125,-0.15565717220306396,-0.14433906972408295,0.0038614696823060513
1670350779868375800,11.433375732421876,-0.0991998240351677,-0.10386022180318832,-0.02063889056444168
1670350779878301200,11.44330126953125,-0.05659050494432449,-0.048468101769685745,-0.03661738336086273
1670350779888226600,11.4532265625,-0.027829213067889214,-0.0015978495357558131,-0.05259587988257408
1670350779898152000,11.46315185546875,0.0009320789249613881,0.046337638050317764,-0.05792204663157463
1670350779908077000,11.4730771484375,0.011584409512579441,0.045272402465343475,-0.04087831825017929
1670350779918002400,11.48300244140625,-0.00226362026296556,0.15179570019245148,0.08481918275356293
1670350779927927800,11.492927734375,-0.09280842542648315,0.1496652364730835,0.21264714002609253
1670350779937853200,11.502853271484375,-0.10133028775453568,-0.033554840832948685,0.0773625448346138
1670350779947778600,11.512778564453125,-0.026763979345560074,-0.1262301206588745,-0.015312724746763706
1670350779957704000,11.522703857421876,-0.009720250964164734,-0.14540430903434753,-0.007856093347072601
1670350779967629300,11.53262939453125,-0.03848154470324516,-0.14114338159561157,-0.007856093347072601
1670350779977554700,11.5425546875,-0.044872939586639404,-0.18801362812519073,-0.01637795753777027
1670350779987480000,11.55247998046875,-0.07256899774074554,-0.222101092338562,0.02410089783370495
1670350779997405400,11.562405517578124,-0.1205044835805893,-0.20825305581092834,0.1306242048740387
1670350780007330800,11.572330810546875,-0.13541774451732635,-0.19866596162319183,0.2041252851486206
1670350780017256200,11.582256103515626,-0.11304785311222076,-0.2135792225599289,0.18069015443325043
1670350780027181600,11.592181640625,-0.08002562820911407,-0.19547025859355927,0.10079767554998398
1670350780037107000,11.60210693359375,-0.0555252730846405,-0.13475197553634644,0.01983996480703354
1670350780047032300,11.6120322265625,-0.041677240282297134,-0.07829462736845016,-0.03342168778181076
1670350780056957700,11.621957763671874,-0.03954677656292915,-0.051663801074028015,-0.0504654161632061
1670350780066883000,11.631883056640625,-0.048068638890981674,-0.06764229387044907,-0.03555215150117874
1670350780076808400,11.641808349609375,-0.061916667968034744,-0.07829462736845016,-0.0025299284607172012
1670350780086733800,11.65173388671875,-0.08322133123874664,-0.0750989317893982,0.013448567129671574
1670350780096659200,11.6616591796875,-0.09600412845611572,-0.06870753318071365,-0.004660394508391619
1670350780106584600,11.67158447265625,-0.10452599078416824,-0.10492545366287231,-0.039813082665205
1670350780116510000,11.681510009765624,-0.11730878800153732,-0.17842653393745422,-0.04087831825017929
1670350780126435000,11.69143505859375,-0.1311568170785904,-0.24127528071403503,0.004926702938973904
1670350780136360400,11.7013603515625,-0.14713531732559204,-0.2764279842376709,0.04966649040579796
1670350780146285800,11.711285888671876,-0.15778763592243195,-0.3179720640182495,0.08694964647293091
1670350780156211200,11.721211181640625,-0.17589659988880157,-0.3094501793384552,0.12423279881477356
1670350780166136600,11.731136474609375,-0.16843996942043304,-0.19333979487419128,0.02729659713804722
1670350780176062000,11.74106201171875,-0.09706936031579971,-0.10172975063323975,-0.02809552103281021
1670350780185987300,11.7509873046875,-0.031024912372231483,0.013315413147211075,-0.05259587988257408
1670350780195912700,11.76091259765625,0.0213046595454216,0.1059906855225563,-0.06005251035094261
1670350780205838000,11.770838134765626,0.05752258375287056,0.1688394397497177,-0.06005251035094261
1670350780215763500,11.780763427734374,0.09800143539905548,0.22955772280693054,-0.05685681104660034
1670350780225688800,11.790688720703125,0.12143656611442566,0.23914481699466705,-0.04620448127388954
1670350780235614200,11.8006142578125,0.10439283400774002,0.19653549790382385,-0.06537867337465286
1670350780245539600,11.81053955078125,0.0745663121342659,0.13475197553634644,-0.10798799991607666
1670350780255465000,11.82046484375,0.05219641700387001,0.0846860259771347,-0.1580539494752884
1670350780265390300,11.830390380859376,0.04473978653550148,0.08255556225776672,-0.20705467462539673
1670350780275315700,11.840315673828124,0.04900071769952774,0.13049104809761047,-0.25605538487434387
1670350780285241000,11.850240966796875,0.05113118514418602,0.16457849740982056,-0.2933385372161865
1670350780295166500,11.86016650390625,0.08095771074295044,0.15712186694145203,-0.262446790933609
1670350780305091800,11.870091796875,0.10545806586742401,0.11238208413124084,-0.16018441319465637
1670350780315017200,11.880017333984375,0.09374050796031952,0.08149032294750214,-0.04726971685886383
1670350780324942600,11.889942626953125,0.06497921794652939,0.09214265644550323,0.02410089783370495
1670350780334868000,11.899867919921874,0.05432688444852829,0.10918638855218887,0.02729659713804722
1670350780344793000,11.90979296875,0.06497921794652939,0.13155627250671387,-0.005725627299398184
1670350780354718500,11.919718505859375,0.05858781561255455,0.16138280928134918,-0.00359516148455441
1670350780364643800,11.929643798828126,0.0213046595454216,0.047402869910001755,-0.04940018057823181
1670350780374569200,11.9395693359375,0.011584409512579441,-0.052729032933712006,-0.05579157918691635
1670350780384494600,11.94949462890625,0.004127778112888336,-0.048468101769685745,-0.0238345880061388
1670350780394420000,11.959419921875,-0.018242115154862404,-0.029293907806277275,-0.00359516148455441
1670350780404345300,11.969345458984375,-0.031024912372231483,-0.054859500378370285,0.014513799920678139
1670350780414270700,11.979270751953125,-0.043807707726955414,-0.11557777971029282,0.04434032365679741
1670350780424196000,11.989196044921876,-0.06830807030200958,-0.15392617881298065,0.09760197252035141
1670350780434121500,11.99912158203125,-0.09067796170711517,-0.1486000120639801,0.14340700209140778
1670350780444046800,12.009046875,-0.09706936031579971,-0.10492545366287231,0.16471165418624878
1670350780453972200,12.01897216796875,-0.07896039634943008,-0.035685304552316666,0.1508636325597763
1670350780463897600,12.028897705078125,-0.054460037499666214,-0.0047935484908521175,0.11358047276735306
1670350780473823000,12.038822998046875,-0.03848154470324516,-0.036750540137290955,0.08268871158361435
1670350780483748400,12.048748291015626,-0.040612008422613144,-0.07616416364908218,0.06990591436624527
1670350780493673700,12.058673828125,-0.0555252730846405,-0.09001219272613525,0.05818835273385048
1670350780503599000,12.06859912109375,-0.06511236727237701,-0.0964035913348198,0.02942706272006035
1670350780513524500,12.0785244140625,-0.06404713541269302,-0.08042509108781815,-0.01637795753777027
1670350780523449900,12.088449951171874,-0.060851436108350754,-0.041011471301317215,-0.03768261894583702
1670350780533375200,12.098375244140625,-0.07043853402137756,-0.025032976642251015,0.04220985993742943
1670350780543300600,12.108300537109375,-0.19080986082553864,0.015445878729224205,0.3202356696128845
1670350780553226000,12.11822607421875,-0.2579195499420166,-0.14114338159561157,0.29467007517814636
1670350780563151400,12.1281513671875,-0.20146219432353973,-0.16670896112918854,0.2041252851486206
1670350780573076500,12.138076416015625,-0.1524614691734314,-0.16564373672008514,0.13914605975151062
1670350780583001900,12.148001953125,-0.12263495475053787,-0.14433906972408295,0.06031882017850876
1670350780592927200,12.15792724609375,-0.09600412845611572,-0.21570968627929688,-0.05366111174225807
1670350780602852600,12.1678525390625,-0.06511236727237701,-0.30199354887008667,-0.1452711522579193
1670350780612778000,12.177778076171874,-0.07576470077037811,-0.3403419554233551,-0.2006632685661316
1670350780622703400,12.187703369140625,-0.12583065032958984,-0.3083849549293518,-0.15379302203655243
1670350780632628700,12.197628662109375,-0.19294032454490662,-0.264710396528244,0.010252867825329304
1670350780642554000,12.20755419921875,-0.24300628900527954,-0.2561885416507721,0.12210233509540558
1670350780652479500,12.2174794921875,-0.25259336829185486,-0.24979715049266815,0.10505861043930054
1670350780662404900,12.22740478515625,-0.21744069457054138,-0.18907886743545532,0.01983996480703354
1670350780672330200,12.237330322265626,-0.15778763592243195,-0.09746882319450378,-0.05792204663157463
1670350780682255600,12.247255615234375,-0.10452599078416824,-0.048468101769685745,-0.09627043455839157
1670350780692181000,12.257180908203125,-0.08641702681779861,-0.0750989317893982,-0.09520520269870758
1670350780702106400,12.2671064453125,-0.09174319356679916,-0.13155627250671387,-0.06750914454460144
1670350780712031700,12.27703173828125,-0.10133028775453568,-0.14114338159561157,-0.02170412242412567
1670350780721957000,12.28695703125,-0.09174319356679916,-0.11877348273992538,0.000665770610794425
1670350780731882500,12.296882568359376,-0.04274247586727142,-0.08788172155618668,-0.04194355010986328
1670350780741807900,12.306807861328124,0.009453942999243736,-0.006924014538526535,-0.08135717362165451
1670350780751733200,12.316733154296875,0.0319569893181324,0.0644465982913971,-0.10053136944770813
1670350780761658600,12.32665869140625,0.03728315606713295,0.0846860259771347,-0.07816147059202194
