time,seconds_elapsed,z,y,x
1670350768857597700,0.42259765625,8.427290916442871,5.006575107574463,1.2551602125167847
1670350768867739000,0.43273876953125,8.377012252807617,4.98742151260376,1.2599486112594604
1670350768877739000,0.442739013671875,8.345888137817383,5.013757705688477,1.2647370100021362
1670350768887868700,0.45286865234375,8.343493461608887,5.03291130065918,1.247977614402771
1670350768897868800,0.462868896484375,8.343493461608887,5.030517101287842,1.2360066175460815
1670350768907987200,0.4729873046875,8.331522941589355,5.0161519050598145,1.2096704244613647
1670350768917987300,0.4829873046875,8.317157745361328,4.982633113861084,1.202487826347351
1670350768928095000,0.493094970703125,8.367435455322266,4.968267917633057,1.1905168294906616
1670350768938095000,0.50309521484375,8.388983726501465,4.963479518890381,1.2120646238327026
1670350768948192800,0.51319287109375,8.427290916442871,4.989815711975098,1.2623428106307983
1670350768958377000,0.523376953125,8.458415031433105,5.03291130065918,1.3006501197814941
1670350768968377000,0.533377197265625,8.460809707641602,5.049670696258545,1.2886791229248047
1670350768978454300,0.543454345703125,8.424896240234375,4.994604110717773,1.245583415031433
1670350768988599600,0.553599609375,8.3027925491333,4.968267917633057,1.183334231376648
1670350768998599700,0.563599609375,8.101380348205566,5.126285076141357,1.326986312866211
1670350769008659200,0.5736591796875,8.266879081726074,5.049670696258545,1.204882025718689
1670350769018770200,0.583770263671875,8.412925720214844,4.937143325805664,1.1210849285125732
1670350769028923400,0.59392333984375,8.604461669921875,4.891653537750244,1.0947487354278564
1670350769039108000,0.604108154296875,8.724471092224121,4.934749126434326,1.2144588232040405
1670350769049108200,0.614108154296875,8.652345657348633,4.982633113861084,1.415871024131775
1670350769059132200,0.624132080078125,8.532635688781738,5.056853294372559,1.4517840147018433
1670350769069175600,0.634175537109375,8.415319442749023,4.953902721405029,1.367687702178955
1670350769079232800,0.644232666015625,8.331522941589355,4.879682540893555,1.2934675216674805
1670350769089297700,0.654297607421875,8.307580947875977,4.853346347808838,1.1785458326339722
1670350769099364600,0.664364501953125,8.353070259094238,4.870105743408203,1.1306617259979248
1670350769109338600,0.674338623046875,8.515875816345215,4.898836135864258,1.125873327255249
1670350769119263700,0.684263671875,8.697835922241211,4.8629231452941895,1.1857284307479858
1670350769129189000,0.694189208984375,8.753201484680176,4.8365864753723145,1.2336124181747437
1670350769139114200,0.7041142578125,8.83699893951416,4.805461883544922,1.1617863178253174
1670350769149039600,0.71403955078125,8.83939266204834,4.750096321105957,1.0444705486297607
1670350769158965000,0.723965087890625,8.78193187713623,4.730942726135254,0.9941922426223755
1670350769168890000,0.73389013671875,8.734047889709473,4.757278919219971,1.0109516382217407
1670350769178815500,0.7438154296875,8.645163536071777,4.7910966873168945,1.0708067417144775
1670350769188740600,0.75374072265625,8.535029411315918,4.843769550323486,1.1091139316558838
1670350769198666000,0.763666015625,8.422502517700195,4.877288341522217,1.1115081310272217
1670350769208591000,0.773591064453125,8.286032676696777,4.951508522033691,1.183334231376648
1670350769218516500,0.7835166015625,8.32912826538086,4.968267917633057,1.2096704244613647
1670350769228441600,0.793441650390625,8.400954246520996,4.932354927062988,1.1953052282333374
1670350769238367000,0.803366943359375,8.50869369506836,4.886865139007568,1.1857284307479858
1670350769248292400,0.813292236328125,8.606855392456055,4.848557949066162,1.1905168294906616
1670350769258217500,0.823217529296875,8.614038467407227,4.831798076629639,1.1641805171966553
1670350769268142800,0.833142822265625,8.554183006286621,4.803067684173584,1.1546037197113037
1670350769278068000,0.84306787109375,8.45362663269043,4.846163749694824,1.1785458326339722
1670350769287993300,0.852993408203125,8.374618530273438,4.915595531463623,1.1976994276046753
1670350769297918500,0.86291845703125,8.32673454284668,4.934749126434326,1.18094003200531
1670350769307843800,0.87284375,8.345888137817383,4.903624534606934,1.18094003200531
1670350769317769000,0.88276904296875,8.377012252807617,4.920383930206299,1.2192472219467163
1670350769327694300,0.8926943359375,8.372223854064941,4.956296920776367,1.1905168294906616
1670350769337619500,0.902619384765625,8.400954246520996,4.913201332092285,1.0181342363357544
1670350769347544800,0.912544921875,8.391377449035645,4.882076740264893,1.058835744857788
1670350769357470200,0.92247021484375,8.501510620117188,4.827009677886963,0.9965864419937134
1670350769367395300,0.932395263671875,8.54460620880127,4.7910966873168945,1.0420763492584229
1670350769377320700,0.94232080078125,8.547000885009766,4.800673484802246,1.0971429347991943
1670350769387245800,0.952245849609375,8.501510620117188,4.824615478515625,1.0348936319351196
1670350769397171200,0.962171142578125,8.415319442749023,4.874894142150879,1.0205284357070923
1670350769407096300,0.972096435546875,8.465598106384277,4.872499942779541,1.0995371341705322
1670350769417021700,0.982021728515625,8.547000885009766,4.853346347808838,1.1641805171966553
1670350769426946800,0.99194677734375,8.618826866149902,4.838980674743652,1.2288240194320679
1670350769436872200,1.0018720703125,8.642768859863281,4.891653537750244,1.3581109046936035
1670350769446797300,1.01179736328125,8.685864448547363,4.877288341522217,1.2982559204101562
1670350769456722700,1.02172265625,8.690652847290039,4.831798076629639,1.0564415454864502
1670350769466648000,1.03164794921875,8.647557258605957,4.786308288574219,0.8888474106788635
1670350769476573200,1.0415732421875,8.621220588684082,4.764461517333984,1.0444705486297607
1670350769486498600,1.05149853515625,8.614038467407227,4.76924991607666,1.3174095153808594
1670350769496423700,1.061423583984375,8.755595207214355,4.659116744995117,1.4039000272750854
1670350769506349000,1.07134912109375,8.904036521911621,4.572925090789795,1.4733319282531738
1670350769516274200,1.081274169921875,8.884882926940918,4.661510944366455,1.4469956159591675
1670350769526199600,1.091199462890625,8.889671325683594,4.834192276000977,1.324592113494873
1670350769536124700,1.101124755859375,8.865729331970215,4.908412933349609,1.247977614402771
1670350769546050000,1.111050048828125,8.68825912475586,4.817432880401611,1.3868412971496582
1670350769555975400,1.120975341796875,8.738836288452148,4.69024133682251,1.4012064933776855
1670350769565900500,1.130900634765625,8.724471092224121,4.630385875701904,1.3126211166381836
1670350769575826000,1.140825927734375,8.614038467407227,4.702212333679199,1.2336124181747437
1670350769585751000,1.1507509765625,8.42968463897705,4.8126444816589355,1.2431892156600952
1670350769595676400,1.160676513671875,8.32912826538086,4.865317344665527,1.2551602125167847
1670350769605601500,1.1706015625,8.353070259094238,4.860528945922852,1.1785458326339722
1670350769615527000,1.18052685546875,8.27166748046875,4.815038681030273,1.0516531467437744
1670350769625452000,1.1904521484375,8.350676536560059,4.73573112487793,0.8816647529602051
1670350769635377400,1.20037744140625,8.60925006866455,4.659116744995117,0.7161656022071838
1670350769645302500,1.210302490234375,8.954314231872559,4.611232280731201,0.6898293495178223
1670350769655228000,1.220227783203125,9.17936897277832,4.58968448638916,0.7832032442092896
1670350769665153300,1.2301533203125,9.205705642700195,4.5825018882751465,0.8505401611328125
1670350769675078400,1.240078369140625,9.097966194152832,4.60165548324585,0.9080010056495667
1670350769685003800,1.250003662109375,8.738836288452148,4.575319290161133,0.8984242081642151
1670350769694929000,1.259928955078125,8.262090682983398,4.565742492675781,0.7688380479812622
1670350769704854300,1.269854248046875,7.996035099029541,4.599261283874512,0.5940613150596619
1670350769714779400,1.279779296875,7.9744873046875,4.697423934936523,0.5413888692855835
1670350769724704800,1.289704833984375,8.154352188110352,4.798279285430908,0.591667115688324
1670350769734630000,1.2996298828125,8.388983726501465,4.8126444816589355,0.6371569037437439
1670350769744555300,1.30955517578125,8.654740333557129,4.79588508605957,0.7281365990638733
1670350769754480400,1.31948046875,8.661922454833984,4.783914089202881,0.756866991519928
1670350769764405800,1.32940576171875,8.563759803771973,4.786308288574219,0.7879916429519653
1670350769774331100,1.3393310546875,8.547000885009766,4.8126444816589355,0.8696937561035156
1670350769784256300,1.34925634765625,8.587701797485352,4.860528945922852,0.9917980432510376
1670350769794181600,1.359181640625,8.578125,4.865317344665527,1.0684125423431396
1670350769804106800,1.369106689453125,8.652345657348633,4.810250282287598,1.1139023303985596
1670350769814032100,1.3790322265625,8.772355079650879,4.757278919219971,1.1402385234832764
1670350769823957200,1.388957275390625,8.848969459533691,4.692635536193848,1.1234791278839111
1670350769833882600,1.398882568359375,8.820239067077637,4.668693542480469,1.0971429347991943
1670350769843807700,1.408807861328125,8.710105895996094,4.680664539337158,1.0684125423431396
1670350769853733000,1.418733154296875,8.683470726013184,4.730942726135254,1.003769040107727
1670350769863658500,1.428658447265625,8.70022964477539,4.776731491088867,0.9463081955909729
1670350769873583600,1.43858349609375,8.70022964477539,4.783914089202881,0.922366201877594
1670350769883509000,1.448509033203125,8.681076049804688,4.7910966873168945,0.9199720025062561
1670350769893434000,1.45843408203125,8.63558578491211,4.786308288574219,0.8382698893547058
1670350769903359500,1.468359375,8.463203430175781,4.783914089202881,0.7496843934059143
1670350769913284600,1.47828466796875,8.309974670410156,4.783914089202881,0.7425017952919006
1670350769923210000,1.4882099609375,8.32912826538086,4.831798076629639,0.773626446723938
1670350769933135000,1.498135009765625,8.432079315185547,4.858134746551514,0.8191162347793579
1670350769943060500,1.508060546875,8.501510620117188,4.848557949066162,0.8433575630187988
1670350769952985600,1.517985595703125,8.48714542388916,4.834192276000977,0.8457517623901367
1670350769962911000,1.527910888671875,8.465598106384277,4.827009677886963,0.8553285598754883
1670350769972836400,1.53783642578125,8.398560523986816,4.805461883544922,0.8433575630187988
1670350769982761500,1.547761474609375,8.436867713928223,4.786308288574219,0.8457517623901367
1670350769992686800,1.557686767578125,8.535029411315918,4.7910966873168945,0.8768763542175293
1670350770002612000,1.567612060546875,8.673893928527832,4.798279285430908,0.9199720025062561
1670350770012537300,1.577537353515625,8.755595207214355,4.805461883544922,0.9798270463943481
1670350770022462500,1.58746240234375,8.789113998413086,4.7910966873168945,0.9870096445083618
1670350770032387800,1.597387939453125,8.767566680908203,4.79588508605957,0.9295487999916077
1670350770042313000,1.60731298828125,8.712499618530273,4.788702487945557,0.8744821548461914
1670350770052238300,1.61723828125,8.614038467407227,4.781519889831543,0.8744821548461914
1670350770062163500,1.62716357421875,8.535029411315918,4.798279285430908,0.8792705535888672
1670350770072088800,1.6370888671875,8.460809707641602,4.803067684173584,0.9127894043922424
1670350770082014200,1.64701416015625,8.513482093811035,4.793490886688232,0.8601169586181641
1670350770091939600,1.656939697265625,8.527847290039062,4.779125690460205,0.8864531517028809
1670350770101864700,1.66686474609375,8.436867713928223,4.798279285430908,0.9534908533096313
1670350770111790000,1.6767900390625,8.408137321472168,4.829403877258301,0.8792705535888672
1670350770121715500,1.686715576171875,8.432079315185547,4.810250282287598,0.7784148454666138
1670350770131640800,1.696640869140625,8.518270492553711,4.788702487945557,0.8262988328933716
1670350770141566000,1.70656591796875,8.647557258605957,4.7910966873168945,0.9103952050209045
1670350770151491300,1.7164912109375,8.690652847290039,4.798279285430908,0.9151836037635803
1670350770161416700,1.726416748046875,8.685864448547363,4.805461883544922,0.9199720025062561
1670350770171342000,1.736342041015625,8.594884872436523,4.815038681030273,0.9271546006202698
1670350770181267500,1.746267333984375,8.525452613830566,4.817432880401611,0.922366201877594
1670350770191192600,1.756192626953125,8.45362663269043,4.781519889831543,0.922366201877594
1670350770201118000,1.766117919921875,8.391377449035645,4.764461517333984,0.9032126069068909
1670350770211043300,1.776043212890625,8.513482093811035,4.754884719848633,0.8816647529602051
1670350770220968700,1.78596875,8.66671085357666,4.73573112487793,0.8143278360366821
1670350770230893800,1.795893798828125,8.757989883422852,4.716577529907227,0.7879916429519653
1670350770240819200,1.805819091796875,8.746018409729004,4.714183330535889,0.7832032442092896
1670350770250744600,1.81574462890625,8.803479194641113,4.69024133682251,0.7903858423233032
1670350770260670000,1.825669921875,8.789113998413086,4.69024133682251,0.8047510385513306
1670350770270595000,1.835594970703125,8.657134056091309,4.697423934936523,0.7664438486099243
1670350770280520400,1.8455205078125,8.578125,4.738125324249268,0.7185598015785217
1670350770290445800,1.85544580078125,8.525452613830566,4.774337291717529,0.7161656022071838
1670350770300371200,1.86537109375,8.48475170135498,4.7620673179626465,0.7401075959205627
1670350770310296300,1.87529638671875,8.535029411315918,4.728548526763916,0.7329249978065491
1670350770320221700,1.8852216796875,8.568548202514648,4.738125324249268,0.7712322473526001
1670350770330147000,1.89514697265625,8.697835922241211,4.747702121734619,0.8481459617614746
1670350770340072400,1.905072509765625,8.705317497253418,4.774337291717529,0.8720879554748535
1670350770349997600,1.91499755859375,8.707711219787598,4.788702487945557,0.8960300087928772
1670350770359923000,1.9249228515625,8.712499618530273,4.779125690460205,0.8936358094215393
1670350770369848300,1.934848388671875,8.618826866149902,4.726154327392578,0.8457517623901367
1670350770379773700,1.944773681640625,8.48714542388916,4.702212333679199,0.8382698893547058
1670350770389698800,1.95469873046875,8.477568626403809,4.697423934936523,0.8239046335220337
1670350770399624200,1.964624267578125,8.479963302612305,4.683058738708496,0.8119336366653442
1670350770409549600,1.974549560546875,8.475174903869629,4.702212333679199,0.7712322473526001
1670350770419475000,1.984474853515625,8.594884872436523,4.714183330535889,0.7448959946632385
1670350770429400000,1.994400146484375,8.765172004699707,4.67827033996582,0.7999626398086548
1670350770439325400,2.004325439453125,8.863334655761719,4.651933670043945,0.8529343605041504
1670350770449250600,2.01425048828125,8.918401718139648,4.666299343109131,0.862511157989502
1670350770459176000,2.024176025390625,8.860940933227539,4.721365928649902,0.9199720025062561
1670350770469101000,2.03410107421875,8.697835922241211,4.72376012802124,0.9582792520523071
1670350770479026400,2.0440263671875,8.602066993713379,4.711789131164551,0.9127894043922424
1670350770488951600,2.05395166015625,8.558971405029297,4.707000732421875,0.83348149061203
1670350770498877000,2.063876953125,8.503905296325684,4.721365928649902,0.8023568391799927
1670350770508802000,2.073802001953125,8.530241012573242,4.726154327392578,0.8406640887260437
1670350770518727400,2.0837275390625,8.570942878723145,4.728548526763916,0.8649053573608398
1670350770528652800,2.09365283203125,8.57573127746582,4.7189717292785645,0.9247604012489319
1670350770538578000,2.103577880859375,8.626008987426758,4.7189717292785645,0.9798270463943481
1670350770548503300,2.11350341796875,8.734047889709473,4.72376012802124,0.9846154451370239
1670350770558428400,2.123428466796875,8.801085472106934,4.726154327392578,0.9774328470230103
1670350770568353800,2.133353759765625,8.765172004699707,4.72376012802124,0.9726444482803345
1670350770578279000,2.14327880859375,8.690652847290039,4.709394931793213,0.922366201877594
1670350770588204300,2.153204345703125,8.652345657348633,4.675876140594482,0.9080010056495667
1670350770598129400,2.16312939453125,8.707711219787598,4.656722068786621,0.9295487999916077
1670350770608054800,2.1730546875,8.75080680847168,4.663905143737793,0.9367313981056213
1670350770617980200,2.182980224609375,8.772355079650879,4.692635536193848,0.9199720025062561
1670350770627905300,2.1929052734375,8.741230010986328,4.716577529907227,0.8720879554748535
1670350770637830700,2.20283056640625,8.618826866149902,4.730942726135254,0.83348149061203
1670350770647755800,2.212755859375,8.45362663269043,4.7620673179626465,0.8720879554748535
1670350770657681200,2.22268115234375,8.374618530273438,4.776731491088867,0.884058952331543
1670350770667606300,2.232606201171875,8.45123291015625,4.786308288574219,0.8553285598754883
1670350770677531600,2.24253173828125,8.513482093811035,4.779125690460205,0.9127894043922424
1670350770687456800,2.252456787109375,8.594884872436523,4.759673118591309,0.9151836037635803
1670350770697382100,2.262382080078125,8.705317497253418,4.738125324249268,0.8912416100502014
1670350770707307300,2.272307373046875,8.654740333557129,4.707000732421875,0.9487023949623108
1670350770717232600,2.282232666015625,8.597278594970703,4.666299343109131,0.9271546006202698
1670350770727158000,2.292157958984375,8.637980461120605,4.651933670043945,0.8816647529602051
1670350770737083100,2.302083251953125,8.685864448547363,4.683058738708496,0.8864531517028809
1670350770747008500,2.312008544921875,8.657134056091309,4.72376012802124,0.900818407535553
1670350770756933600,2.32193359375,8.702624320983887,4.754884719848633,0.8696937561035156
1670350770766859000,2.33185888671875,8.710105895996094,4.766855716705322,0.922366201877594
1670350770776784100,2.3417841796875,8.649951934814453,4.779125690460205,0.9630676507949829
1670350770786709500,2.35170947265625,8.626008987426758,4.788702487945557,0.982221245765686
1670350770796634600,2.361634521484375,8.511087417602539,4.779125690460205,0.960673451423645
1670350770806560000,2.37156005859375,8.580519676208496,4.752490520477295,0.9630676507949829
1670350770816485000,2.381485107421875,8.479963302612305,4.644751071929932,0.9319429993629456
1670350770826410500,2.391410400390625,8.319551467895508,4.6040496826171875,0.7209540009498596
1670350770836335900,2.4013359375,8.637980461120605,4.754884719848633,0.5844845175743103
1670350770846261000,2.411260986328125,8.81784439086914,4.889259338378906,0.773626446723938
1670350770856186400,2.421186279296875,8.89445972442627,4.8629231452941895,0.9534908533096313
1670350770866111500,2.431111572265625,8.868123054504395,4.730942726135254,1.0540473461151123
1670350770876036900,2.441036865234375,8.671499252319336,4.651933670043945,1.0301052331924438
1670350770885962000,2.4509619140625,8.32912826538086,4.651933670043945,0.9487023949623108
1670350770895887400,2.460887451171875,8.084620475769043,4.666299343109131,0.83348149061203
1670350770905812500,2.4708125,8.262090682983398,4.7189717292785645,0.8239046335220337
1670350770915737900,2.48073779296875,8.63319206237793,4.805461883544922,0.9127894043922424
1670350770925663200,2.490663330078125,8.949525833129883,4.8844709396362305,0.9558850526809692
1670350770935588400,2.50058837890625,9.078812599182129,4.89644193649292,0.884058952331543
1670350770945513700,2.510513671875,9.083600997924805,4.800673484802246,0.8215104341506958
1670350770955438800,2.52043896484375,8.959102630615234,4.7405195236206055,0.8310872912406921
1670350770965364200,2.5303642578125,8.738836288452148,4.69024133682251,0.7903858423233032
1670350770975289300,2.540289306640625,8.494328498840332,4.671087741851807,0.8382698893547058
1670350770985214700,2.550214599609375,8.355464935302734,4.704606533050537,0.9127894043922424
1670350770995139800,2.560139892578125,8.321946144104004,4.716577529907227,0.9271546006202698
1670350771005065200,2.570065185546875,8.496722221374512,4.714183330535889,0.9510966539382935
1670350771014990300,2.579990234375,8.66671085357666,4.759673118591309,1.0779893398284912
1670350771024915700,2.589915771484375,8.738836288452148,4.666299343109131,0.960673451423645
1670350771034841000,2.599841064453125,8.916007041931152,4.587290287017822,0.6227917075157166
1670350771044766200,2.60976611328125,8.511087417602539,4.709394931793213,0.5677250623703003
1670350771054691600,2.619691650390625,8.314763069152832,4.822221279144287,0.7448959946632385
1670350771064617000,2.629616943359375,8.539817810058594,4.822221279144287,0.900818407535553
1670350771074542300,2.639542236328125,8.489540100097656,4.67827033996582,0.9080010056495667
1670350771084467500,2.649467529296875,8.45123291015625,4.537012100219727,0.7161656022071838
1670350771094392800,2.659392822265625,8.501510620117188,4.529829502105713,0.5485714673995972
1670350771104318200,2.669318115234375,8.398560523986816,4.568136692047119,0.7041945457458496
1670350771114243600,2.67924365234375,8.250120162963867,4.592078685760498,0.8457517623901367
1670350771124168700,2.689168701171875,8.319551467895508,4.675876140594482,0.8382698893547058
1670350771134094000,2.699093994140625,8.410531044006348,4.754884719848633,0.6922235488891602
1670350771144019500,2.70901953125,8.535029411315918,4.771644115447998,0.6036381125450134
1670350771153944800,2.71894482421875,8.710105895996094,4.786308288574219,0.44322657585144043
1670350771163870000,2.728869873046875,8.868123054504395,4.822221279144287,0.3737947344779968
1670350771173795300,2.73879541015625,8.87051773071289,4.8509521484375,0.39534255862236023
1670350771183720700,2.748720703125,8.746018409729004,4.805461883544922,0.46477439999580383
1670350771193646000,2.75864599609375,8.772355079650879,4.759673118591309,0.5366004705429077
1670350771203571200,2.7685712890625,8.779537200927734,4.745307922363281,0.6156091094017029
1670350771213496600,2.77849658203125,8.791508674621582,4.750096321105957,0.574907660484314
1670350771223422000,2.788421875,8.760383605957031,4.750096321105957,0.5102642178535461
1670350771233347300,2.798347412109375,8.70022964477539,4.702212333679199,0.44322657585144043
1670350771243272400,2.8082724609375,8.626008987426758,4.699818134307861,0.48632222414016724
1670350771253197800,2.81819775390625,8.705317497253418,4.783914089202881,0.5342062711715698
1670350771263123200,2.828123291015625,8.777143478393555,4.805461883544922,0.5653308629989624
1670350771273048600,2.838048583984375,8.89445972442627,4.759673118591309,0.7448959946632385
1670350771282973700,2.8479736328125,8.827422142028809,4.730942726135254,0.8358756899833679
1670350771292899000,2.857899169921875,8.757989883422852,4.754884719848633,0.8023568391799927
1670350771302824400,2.867824462890625,8.647557258605957,4.7620673179626465,0.7879916429519653
1670350771312749800,2.877749755859375,8.52066421508789,4.728548526763916,0.7592611908912659
1670350771322675000,2.887675048828125,8.343493461608887,4.67827033996582,0.7161656022071838
1670350771332600300,2.897600341796875,8.283638954162598,4.6734819412231445,0.6323685050010681
1670350771342525700,2.907525634765625,8.398560523986816,4.711789131164551,0.7233482003211975
1670350771352451000,2.917451171875,8.537424087524414,4.7620673179626465,0.7855974435806274
1670350771362376200,2.927376220703125,8.539817810058594,4.730942726135254,0.773626446723938
1670350771372301600,2.937301513671875,8.547000885009766,4.661510944366455,0.7233482003211975
1670350771382227000,2.94722705078125,8.616432189941406,4.649539470672607,0.7113772034645081
1670350771392152300,2.95715234375,8.746018409729004,4.699818134307861,0.6850409507751465
1670350771402077400,2.967077392578125,9.011775016784668,4.793490886688232,0.8382698893547058
1670350771412002800,2.9770029296875,9.040505409240723,4.815038681030273,0.9056068062782288
1670350771421928200,2.98692822265625,8.956708908081055,4.730942726135254,0.8601169586181641
1670350771431853600,2.996853515625,8.765172004699707,4.654327869415283,0.8382698893547058
1670350771441778700,3.00677880859375,8.578125,4.649539470672607,0.8792705535888672
1670350771451704000,3.0167041015625,8.434473037719727,4.699818134307861,0.8696937561035156
1670350771461629400,3.02662939453125,8.341099739074707,4.7189717292785645,0.7832032442092896
1670350771471554800,3.036554931640625,8.281244277954102,4.709394931793213,0.7018003463745117
1670350771481480000,3.04647998046875,8.30518627166748,4.738125324249268,0.7041945457458496
1670350771491405300,3.0564052734375,8.499116897583008,4.774337291717529,0.7209540009498596
1670350771501330700,3.06633056640625,8.683470726013184,4.827009677886963,0.7544727921485901
1670350771511255800,3.076255859375,8.844181060791016,4.855740547180176,0.9032126069068909
1670350771521181200,3.08618115234375,8.951920509338379,4.877288341522217,1.0947487354278564
1670350771531106600,3.0961064453125,8.868123054504395,4.855740547180176,1.0899603366851807
1670350771541031700,3.10603173828125,8.815450668334961,4.752490520477295,1.0564415454864502
1670350771550957000,3.11595703125,8.808267593383789,4.5394062995910645,0.7688380479812622
1670350771560882200,3.125882080078125,8.554183006286621,4.5609540939331055,0.7999626398086548
1670350771570807600,3.1358076171875,8.506299018859863,4.584896087646484,0.8119336366653442
1670350771580732700,3.145732666015625,8.506299018859863,4.4508209228515625,0.5653308629989624
1670350771590658000,3.155657958984375,8.578125,4.3191399574279785,0.41689038276672363
1670350771600583200,3.165583251953125,8.767566680908203,4.359841346740723,0.38815996050834656
1670350771610508500,3.175508544921875,8.722076416015625,4.558559894561768,0.431255578994751
1670350771620433700,3.18543359375,8.587701797485352,4.757278919219971,0.5509656667709351
1670350771630359000,3.195359130859375,8.41771411895752,4.89644193649292,0.7161656022071838
1670350771640284400,3.205284423828125,8.20223617553711,4.934749126434326,0.7448959946632385
1670350771650209500,3.21520947265625,8.067861557006836,4.8844709396362305,0.7401075959205627
1670350771660135000,3.225135009765625,8.087015151977539,4.819827079772949,0.7209540009498596
1670350771670060000,3.23506005859375,8.32673454284668,4.716577529907227,0.7185598015785217
1670350771679985400,3.2449853515625,8.532635688781738,4.594472885131836,0.6634931564331055
1670350771689910500,3.25491064453125,8.690652847290039,4.479551315307617,0.6203975081443787
1670350771699836000,3.2648359375,8.724471092224121,4.489128112792969,0.9175778031349182
1670350771709761000,3.274760986328125,8.911218643188477,4.642356872558594,1.2982559204101562
1670350771719686400,3.284686279296875,9.006986618041992,4.786308288574219,1.6169840097427368
1670350771729611800,3.29461181640625,9.033323287963867,4.9275665283203125,1.8444331884384155
1670350771739537000,3.304536865234375,9.045293807983398,4.999392509460449,1.8731635808944702
1670350771749462300,3.314462158203125,8.927978515625,4.915595531463623,1.6888099908828735
1670350771759387400,3.324387451171875,8.693047523498535,4.7620673179626465,1.5283985137939453
1670350771769312800,3.334312744140625,8.592490196228027,4.642356872558594,1.3964180946350098
1670350771779238000,3.34423779296875,8.511087417602539,4.623203277587891,1.3652935028076172
1670350771789163300,3.354163330078125,8.412925720214844,4.692635536193848,1.389235496520996
1670350771799088400,3.36408837890625,8.388983726501465,4.776731491088867,1.435024619102478
1670350771809013800,3.374013671875,8.365041732788086,4.853346347808838,1.6193782091140747
1670350771818939000,3.38393896484375,8.472780227661133,4.8509521484375,1.5643115043640137
1670350771828864300,3.3938642578125,8.592490196228027,4.819827079772949,1.435024619102478
1670350771838789600,3.40378955078125,8.7268648147583,4.742913722991943,1.348534107208252
1670350771848714800,3.41371484375,8.889671325683594,4.707000732421875,1.3796586990356445
1670350771858640100,3.42364013671875,8.918401718139648,4.730942726135254,1.4254478216171265
1670350771868565200,3.433565185546875,8.659528732299805,4.742913722991943,1.4012064933776855
1670350771878490600,3.44349072265625,8.374618530273438,4.728548526763916,1.3581109046936035
1670350771888415700,3.453415771484375,7.634510517120361,4.788702487945557,1.2862848043441772
1670350771898341000,3.463341064453125,8.166322708129883,4.692635536193848,1.3389573097229004
1670350771908266200,3.473266357421875,8.475174903869629,4.702212333679199,1.4493898153305054
1670350771918191600,3.483191650390625,9.016563415527344,4.8844709396362305,1.4613608121871948
1670350771928116700,3.49311669921875,9.222464561462402,4.9491143226623535,1.6528970003128052
1670350771938042000,3.5030419921875,9.083600997924805,4.745307922363281,1.7247231006622314
1670350771947967500,3.512967529296875,8.920795440673828,4.532223701477051,1.5738883018493652
1670350771957892600,3.522892578125,8.681076049804688,4.541800498962402,1.2599486112594604
1670350771967818000,3.53281787109375,8.561366081237793,4.656722068786621,1.1522095203399658
1670350771977743400,3.542743408203125,8.48714542388916,4.716577529907227,1.1881226301193237
1670350771987668500,3.55266845703125,8.412925720214844,4.73573112487793,1.1976994276046753
1670350771997593900,3.56259375,8.348281860351562,4.824615478515625,1.2503718137741089
1670350772007519200,3.572519287109375,8.333916664123535,4.910807132720947,1.3006501197814941
1670350772017444600,3.582444580078125,8.341099739074707,4.915595531463623,1.2431892156600952
1670350772027369700,3.59236962890625,8.309974670410156,4.84137487411499,1.1929110288619995
1670350772037295000,3.602295166015625,8.374618530273438,4.752490520477295,1.2431892156600952
1670350772047220500,3.612220458984375,8.563759803771973,4.747702121734619,1.4326304197311401
1670350772057145900,3.622145751953125,8.661922454833984,4.803067684173584,1.4469956159591675
1670350772067071000,3.632071044921875,8.736441612243652,4.803067684173584,1.4254478216171265
1670350772076996400,3.641996337890625,8.762778282165527,4.771644115447998,1.4757261276245117
1670350772086921700,3.651921630859375,8.860940933227539,4.788702487945557,1.820491075515747
1670350772096847000,3.66184716796875,8.944737434387207,4.934749126434326,2.12485408782959
1670350772106772200,3.671772216796875,8.582913398742676,5.064035892486572,1.923441767692566
1670350772116697600,3.681697509765625,8.264485359191895,4.996998310089111,1.6289550065994263
1670350772126623000,3.691623046875,8.055890083312988,4.805461883544922,1.2599486112594604
1670350772136548400,3.70154833984375,8.223783493041992,4.757278919219971,1.2791022062301636
1670350772146473500,3.711473388671875,8.501510620117188,4.7620673179626465,1.5834650993347168
1670350772156398800,3.72139892578125,8.911218643188477,4.882076740264893,1.7606360912322998
1670350772166324200,3.73132421875,8.83699893951416,4.932354927062988,1.5858592987060547
1670350772176249600,3.74124951171875,8.978256225585938,4.9275665283203125,1.4446014165878296
1670350772186174700,3.7511748046875,9.016563415527344,4.886865139007568,1.346139907836914
1670350772196100000,3.76110009765625,8.863334655761719,4.858134746551514,1.2838906049728394
1670350772206025500,3.771025390625,8.652345657348633,4.891653537750244,1.0540473461151123
1670350772215950800,3.780950927734375,8.539817810058594,4.932354927062988,0.8601169586181641
1670350772225876000,3.7908759765625,8.161534309387207,5.011363506317139,0.7640495896339417
1670350772235801300,3.80080126953125,7.440280914306641,5.135861873626709,0.6922235488891602
1670350772245726700,3.810726806640625,7.272686958312988,5.126285076141357,0.6180033087730408
1670350772255652000,3.820652099609375,7.598597526550293,5.03291130065918,0.4767454266548157
1670350772265577200,3.8305771484375,8.1325044631958,4.843769550323486,0.2753331959247589
1670350772275502600,3.840502685546875,8.911218643188477,4.616020679473877,0.2777273952960968
1670350772285428000,3.850427978515625,9.65611457824707,4.525041103363037,0.5677250623703003
1670350772295353300,3.860353271484375,10.16637897491455,4.558559894561768,0.8119336366653442
1670350772305278500,3.870278564453125,10.425251960754395,4.400542736053467,1.104325532913208
1670350772315203800,3.880203857421875,10.391733169555664,3.2818520069122314,0.7209540009498596
1670350772325129200,3.890129150390625,10.022727012634277,4.127304553985596,-0.038307227194309235
1670350772335054600,3.9000546875,8.515875816345215,4.754884719848633,-0.24420857429504395
1670350772344979700,3.909979736328125,8.072649955749512,4.685452938079834,0.07900865375995636
1670350772354905000,3.919905029296875,7.89547872543335,4.6471452713012695,0.5796960592269897
1670350772364830500,3.92983056640625,7.6081743240356445,4.750096321105957,0.6084265112876892
1670350772374755800,3.939755859375,7.521683692932129,4.985027313232422,0.6706757545471191
1670350772384681000,3.949680908203125,7.873930931091309,5.1023430824279785,0.8215104341506958
1670350772394606300,3.9596064453125,8.377012252807617,5.001786708831787,0.9127894043922424
1670350772404531700,3.96953173828125,8.7268648147583,4.874894142150879,0.7257423996925354
1670350772414457000,3.97945703125,8.604461669921875,4.92996072769165,0.47913962602615356
1670350772424382200,3.98938232421875,8.475174903869629,4.8844709396362305,0.5389946699142456
1670350772434307600,3.9993076171875,8.741230010986328,4.6950297355651855,0.2537853717803955
1670350772444233000,4.00923291015625,9.100360870361328,4.675876140594482,0.512658417224884
1670350772454158300,4.019158447265625,8.89445972442627,4.843769550323486,0.5725134611129761
1670350772464083500,4.02908349609375,8.50869369506836,5.042488098144531,0.5725134611129761
1670350772474008800,4.0390087890625,8.530241012573242,4.999392509460449,0.591667115688324
1670350772483934200,4.048934326171875,8.427290916442871,4.898836135864258,0.4264671802520752
1670350772493859600,4.058859619140625,8.3027925491333,4.8844709396362305,0.19153612852096558
1670350772503784700,4.06878466796875,8.307580947875977,4.910807132720947,0.07422025501728058
1670350772513710000,4.0787099609375,8.32673454284668,4.903624534606934,0.026336219161748886
1670350772523635500,4.088635498046875,8.345888137817383,4.846163749694824,-0.019153613597154617
1670350772533560800,4.098560791015625,8.336311340332031,4.793490886688232,-0.004788403399288654
1670350772543486000,4.10848583984375,8.39377212524414,4.805461883544922,0.13168109953403473
1670350772553411300,4.118411376953125,8.518270492553711,4.8844709396362305,0.32112228870391846
1670350772563336700,4.128336669921875,8.647557258605957,5.0161519050598145,0.6826467514038086
1670350772573262000,4.138261962890625,8.889671325683594,5.104737281799316,0.9510966539382935
1670350772583187500,4.1481875,8.841787338256836,4.9275665283203125,1.0229226350784302
1670350772593112600,4.158112548828125,8.920795440673828,5.0807952880859375,0.7688380479812622
1670350772603038000,4.168037841796875,8.947132110595703,5.1023430824279785,0.6826467514038086
1670350772612963300,4.17796337890625,8.678682327270508,5.011363506317139,0.1604115068912506
1670350772622888700,4.187888671875,8.400954246520996,4.815038681030273,-0.4073135554790497
1670350772632813800,4.197813720703125,8.185476303100586,4.779125690460205,-0.9103952050209045
1670350772642739200,4.2077392578125,8.209418296813965,4.55616569519043,-0.9726444482803345
1670350772652664300,4.217664306640625,8.058284759521484,4.654327869415283,-1.3796586990356445
1670350772662589700,4.227589599609375,8.264485359191895,4.680664539337158,-1.0109516382217407
1670350772672514800,4.237514892578125,8.765172004699707,4.771644115447998,-0.7329249978065491
1670350772682440200,4.247440185546875,8.966285705566406,4.886865139007568,-0.3139396905899048
1670350772692365300,4.257365234375,8.880094528198242,4.982633113861084,-0.17238251864910126
1670350772702290700,4.267290771484375,8.865729331970215,5.052064895629883,0.026336219161748886
1670350772712215800,4.2772158203125,8.779537200927734,5.126285076141357,0.38576576113700867
1670350772722141200,4.28714111328125,8.503905296325684,5.272331237792969,0.6610989570617676
1670350772732066600,4.297066650390625,8.21420669555664,5.483320236206055,0.8047510385513306
1670350772741991700,4.30699169921875,8.027159690856934,5.567117691040039,0.7975684404373169
1670350772751917000,4.3169169921875,7.680000305175781,5.540781497955322,0.900818407535553
1670350772761842200,4.32684228515625,7.636904716491699,5.521627902984619,0.943913996219635
1670350772771767600,4.336767578125,7.538443088531494,5.538387298583984,0.8696937561035156
1670350772781692700,4.346692626953125,7.571962356567383,5.545569896697998,0.634762704372406
1670350772791618000,4.3566181640625,7.706336498260498,5.507262229919434,0.43604397773742676
1670350772801543200,4.366543212890625,7.921814918518066,5.423465251922607,0.3761889338493347
1670350772811468500,4.376468505859375,8.154352188110352,5.354033470153809,0.4240729808807373
1670350772821393700,4.3863935546875,8.39616584777832,5.370792865753174,0.4982932209968567
1670350772831319000,4.396319091796875,8.61164379119873,5.29387903213501,0.4216787815093994
1670350772841244400,4.406244384765625,8.746018409729004,5.195716857910156,0.27054479718208313
1670350772851169500,4.41616943359375,8.83699893951416,5.11191987991333,0.1867477297782898
1670350772861095000,4.426094970703125,8.87291145324707,5.1238908767700195,0.14365209639072418
1670350772871020000,4.43602001953125,8.712499618530273,5.1693806648254395,0.08140286058187485
1670350772880945400,4.4459453125,8.432079315185547,5.186140060424805,0.08379705995321274
1670350772890870500,4.45587060546875,8.264485359191895,5.178957462310791,0.07422025501728058
1670350772900796000,4.4657958984375,8.281244277954102,5.164592266082764,0.0454898327589035
1670350772910721000,4.475720947265625,8.386589050292969,5.2124762535095215,0.031124621629714966
1670350772920646400,4.485646484375,8.348281860351562,5.253177642822266,0.23702596127986908
1670350772930571800,4.49557177734375,8.290821075439453,5.1693806648254395,0.12210428714752197
1670350772940497000,4.505496826171875,8.324339866638184,5.257966041564941,-0.12449848651885986
1670350772950422300,4.51542236328125,8.32912826538086,5.305850028991699,0.040701430290937424
1670350772960347400,4.525347412109375,8.439261436462402,5.109525680541992,0.06703764945268631
1670350772970272800,4.535272705078125,8.760383605957031,5.15740966796875,-0.15562310814857483
1670350772980198000,4.545197998046875,8.844181060791016,5.15740966796875,0.033518824726343155
1670350772990123300,4.555123291015625,8.786720275878906,4.996998310089111,-0.028730420395731926
1670350773000048600,4.565048583984375,8.587701797485352,5.095160484313965,-0.05746084079146385
1670350773009974000,4.57497412109375,8.257302284240723,5.15740966796875,0.11252748221158981
1670350773019899100,4.584899169921875,8.03194808959961,5.243600845336914,0.0694318488240242
1670350773029824500,4.594824462890625,7.926603317260742,5.373187065124512,0.1364694982767105
1670350773039750000,4.60475,7.866748332977295,5.3348798751831055,0.17477671802043915
1670350773049675300,4.61467529296875,8.139687538146973,5.435436248779297,0.0933738648891449
1670350773059600400,4.624600341796875,8.45362663269043,5.36361026763916,0.08379705995321274
1670350773069525800,4.63452587890625,8.570942878723145,5.2555718421936035,0.10295066982507706
1670350773079451100,4.644451171875,8.580519676208496,5.238812446594238,0.12689268589019775
1670350773089376500,4.65437646484375,8.479963302612305,5.269937038421631,0.08619125932455063
1670350773099301600,4.664301513671875,8.412925720214844,5.310638427734375,0.1173158809542656
1670350773109227000,4.67422705078125,8.355464935302734,5.3226094245910645,0.15083470940589905
1670350773119152400,4.68415234375,8.281244277954102,5.358821868896484,0.0933738648891449
1670350773129077800,4.694077880859375,8.077438354492188,5.368398666381836,0.06224924325942993
1670350773139003000,4.7040029296875,7.893084526062012,5.3564276695251465,0.038307227194309235
1670350773148928300,4.71392822265625,7.80449914932251,5.366004467010498,0.033518824726343155
1670350773158853600,4.723853515625,7.83801794052124,5.36361026763916,0.09576806426048279
1670350773168779000,4.733779052734375,7.931391716003418,5.370792865753174,0.1149216815829277
1670350773178704400,4.743704345703125,8.171111106872559,5.385158061981201,0.13407529890537262
1670350773188629500,4.75362939453125,8.408137321472168,5.406705856323242,0.2298433631658554
1670350773198555000,4.763554931640625,8.561366081237793,5.401917457580566,0.2059013396501541
1670350773208480300,4.773480224609375,8.66671085357666,5.368398666381836,0.09816227108240128
1670350773218405600,4.783405517578125,8.659528732299805,5.296273231506348,0.05746084079146385
1670350773228330800,4.793330810546875,8.57573127746582,5.238812446594238,0.002394201699644327
1670350773238256000,4.803256103515625,8.463203430175781,5.2124762535095215,0.011971008032560349
1670350773248181500,4.813181396484375,8.266879081726074,5.224447250366211,0.004788403399288654
1670350773258107000,4.82310693359375,8.106168746948242,5.245995044708252,0.08379705995321274
1670350773268032000,4.833031982421875,8.077438354492188,5.291484832763672,0.10773907601833344
1670350773277957400,4.842957275390625,8.192659378051758,5.354033470153809,0.1364694982767105
1670350773287882800,4.8528828125,8.338705062866211,5.394734859466553,0.20111294090747833
1670350773297808100,4.86280810546875,8.391377449035645,5.428253650665283,0.1149216815829277
1670350773307733200,4.872733154296875,8.405742645263672,5.389946460723877,0.019153613597154617
1670350773317658600,4.88265869140625,8.439261436462402,5.349245071411133,-0.014365210197865963
1670350773327584000,4.892583984375,8.48475170135498,5.305850028991699,-0.019153613597154617
1670350773337509400,4.90250927734375,8.523058891296387,5.257966041564941,-0.019153613597154617
1670350773347434500,4.9124345703125,8.427290916442871,5.24838924407959,0.035913024097681046
1670350773357359900,4.92235986328125,8.221389770507812,5.2771196365356445,0.05985504388809204
1670350773367285200,4.93228515625,8.233360290527344,5.423465251922607,0.2106897532939911
1670350773377210600,4.942210693359375,7.782951354980469,5.586271286010742,-0.038307227194309235
1670350773387135700,4.9521357421875,7.663240909576416,5.564723491668701,-0.1604115068912506
1670350773397061000,4.96206103515625,7.31578254699707,5.418676853179932,0.021547814831137657
1670350773406986500,4.971986572265625,7.5575971603393555,5.267542839050293,0.011971008032560349
1670350773416912000,4.981911865234375,8.3027925491333,5.140650272369385,-0.06464344263076782
1670350773426837000,4.9918369140625,9.006986618041992,5.087977886199951,-0.07182604819536209
1670350773436762400,5.001762451171875,9.457395553588867,5.114314079284668,-0.1604115068912506
1670350773446687700,5.011687744140625,9.739912033081055,5.291484832763672,-0.14844051003456116
1670350773456613000,5.021613037109375,9.74470043182373,5.40910005569458,-0.0071826050989329815
1670350773466538200,5.031538330078125,9.198522567749023,5.3564276695251465,0.24420857429504395
1670350773476463600,5.041463623046875,8.36025333404541,5.269937038421631,0.1843535304069519
1670350773486389000,5.051388916015625,7.473799705505371,5.40910005569458,-0.18914192914962769
1670350773496314400,5.061314453125,6.9922661781311035,5.54317569732666,-0.2082955539226532
1670350773506239500,5.071239501953125,6.946776390075684,5.531204700469971,0.06703764945268631
1670350773516164900,5.081164794921875,7.2894463539123535,5.468955039978027,0.10534487664699554
1670350773526090200,5.09109033203125,7.6967597007751465,5.45458984375,0.035913024097681046
1670350773536015600,5.101015625,8.216601371765137,5.495291233062744,0.09816227108240128
1670350773545940700,5.110940673828125,8.683470726013184,5.447407245635986,0.031124621629714966
1670350773555866000,5.1208662109375,8.81784439086914,5.337274074554443,-0.10055647045373917
1670350773565791500,5.13079150390625,8.901641845703125,5.279513835906982,0.08619125932455063
1670350773575716900,5.140716796875,8.774748802185059,5.272331237792969,-0.10534487664699554
1670350773585642000,5.15064208984375,8.506299018859863,5.387552261352539,-0.11971008777618408
1670350773595567400,5.1605673828125,8.556577682495117,5.320215225219727,0.05746084079146385
1670350773605492700,5.17049267578125,8.661922454833984,5.20289945602417,0.09816227108240128
1670350773615418000,5.180418212890625,8.710105895996094,5.2555718421936035,0.11013327538967133
1670350773625343200,5.19034326171875,8.52066421508789,5.315426826477051,0.08858546614646912
1670350773635268600,5.2002685546875,8.137292861938477,5.339668273925781,0.08379705995321274
1670350773645194000,5.210194091796875,7.79252815246582,5.428253650665283,0.05985504388809204
1670350773655119400,5.220119384765625,7.5575971603393555,5.521627902984619,0.05027823522686958
1670350773665044500,5.23004443359375,7.454646110534668,5.538387298583984,0.1364694982767105
1670350773674969900,5.239969970703125,7.620145320892334,5.4881086349487305,0.040701430290937424
1670350773684895200,5.249895263671875,7.9194207191467285,5.445013046264648,-0.07422025501728058
1670350773694820600,5.259820556640625,8.3027925491333,5.497685432434082,0.043095629662275314
1670350773704745700,5.269745849609375,8.556577682495117,5.497685432434082,0.08858546614646912
1670350773714671000,5.279671142578125,8.661922454833984,5.361216068267822,-0.0454898327589035
1670350773724596500,5.289596435546875,8.39616584777832,5.308244228363037,-0.07900865375995636
1670350773734521900,5.29952197265625,7.799710750579834,5.387552261352539,-0.12210428714752197
1670350773744447000,5.309447021484375,7.447463512420654,5.480926036834717,-0.16759411990642548
1670350773754372400,5.319372314453125,7.260715961456299,5.658097267150879,-0.026336219161748886
1670350773764297700,5.329297607421875,6.530185222625732,5.3995232582092285,-0.23942017555236816
1670350773774223000,5.33922314453125,8.697835922241211,5.097554683685303,-0.47913962602615356
1670350773784148200,5.349148193359375,9.958083152770996,5.217264652252197,0.1867477297782898
1670350773794073600,5.359073486328125,10.250176429748535,5.162198066711426,0.5677250623703003
1670350773803999000,5.3689990234375,9.907805442810059,5.006575107574463,0.4456208050251007
1670350773813924400,5.37892431640625,9.577106475830078,5.028122901916504,0.15562310814857483
1670350773823849500,5.388849365234375,8.83699893951416,5.257966041564941,0.10534487664699554
1670350773833774800,5.39877490234375,7.909843921661377,5.449801445007324,-0.028730420395731926
1670350773843700200,5.4087001953125,7.121852397918701,5.516839504241943,-0.12210428714752197
1670350773853625600,5.41862548828125,6.901286602020264,5.50007963180542,-0.12689268589019775
1670350773863550700,5.42855078125,7.413944721221924,5.423465251922607,-0.08140286058187485
1670350773873476000,5.43847607421875,7.83801794052124,5.394734859466553,-0.07182604819536209
1670350773883401500,5.4484013671875,7.933785915374756,5.456984043121338,-0.10055647045373917
1670350773893326800,5.458326904296875,8.125322341918945,5.456984043121338,-0.15801730751991272
1670350773903252000,5.468251953125,8.762778282165527,5.413888454437256,-0.09816227108240128
1670350773913177300,5.47817724609375,7.984064102172852,5.531204700469971,0.17717093229293823
1670350773923102700,5.488102783203125,7.648875713348389,5.351639270782471,-0.16998831927776337
1670350773933028000,5.498028076171875,7.979275703430176,5.188534259796143,-0.21547815203666687
1670350773942953200,5.507953125,8.7268648147583,5.1238908767700195,-0.1149216815829277
1670350773952878600,5.517878662109375,9.672874450683594,5.054459095001221,0.040701430290937424
1670350773962804000,5.527803955078125,10.434828758239746,5.042488098144531,0.15083470940589905
1670350773972729300,5.537729248046875,9.998785018920898,5.085583686828613,0.2876034677028656
1670350773982654500,5.547654541015625,9.14345645904541,5.138256072998047,0.15801730751991272
1670350773992579800,5.557579833984375,8.228571891784668,5.358821868896484,0.16519992053508759
1670350774002505200,5.567505126953125,7.318176746368408,5.5790886878967285,0.13168109953403473
1670350774012430600,5.5774306640625,7.155371189117432,5.4665608406066895,-0.0071826050989329815
1670350774022355700,5.587355712890625,7.277475357055664,5.366004467010498,-0.10055647045373917
1670350774032281000,5.597281005859375,7.533654689788818,5.423465251922607,-0.14365209639072418
1670350774042206500,5.60720654296875,7.802104949951172,5.473743438720703,-0.26336219906806946
1670350774052131800,5.6171318359375,8.18068790435791,5.45458984375,-0.2801215946674347
1670350774062057000,5.627056884765625,8.556577682495117,5.394734859466553,-0.08619125932455063
1670350774071982300,5.636982421875,7.155371189117432,5.593453884124756,-0.009576806798577309
1670350774081907700,5.64690771484375,7.200860977172852,5.392340660095215,-0.6060323119163513
1670350774091833000,5.6568330078125,8.400954246520996,5.183745861053467,-0.5198410153388977
1670350774101758200,5.66675830078125,9.375992774963379,5.133467674255371,-0.009576806798577309
1670350774111683600,5.67668359375,9.941324234008789,5.018546104431152,0.2585737705230713
1670350774121609000,5.68660888671875,9.534010887145996,5.06643009185791,0.34745851159095764
1670350774131534300,5.696534423828125,8.386589050292969,5.226841449737549,-0.026336219161748886
1670350774141459500,5.70645947265625,7.972093105316162,5.3348798751831055,-0.3043628931045532
1670350774151384800,5.716384765625,8.048707962036133,5.452195644378662,0.090979665517807
1670350774161310200,5.726310302734375,8.053496360778809,5.389946460723877,0.2298433631658554
1670350774171235600,5.736235595703125,7.818864345550537,5.3564276695251465,0.028730420395731926
1670350774181160700,5.74616064453125,7.950545310974121,5.3995232582092285,-0.11013327538967133
1670350774191086000,5.756086181640625,8.06307315826416,5.4210710525512695,-0.13407529890537262
1670350774201011500,5.766011474609375,8.50869369506836,5.366004467010498,-0.1604115068912506
1670350774210936800,5.775936767578125,8.09898567199707,5.514444828033447,-0.004788403399288654
1670350774220862000,5.785862060546875,7.639298915863037,5.401917457580566,-0.34985271096229553
1670350774230787300,5.795787353515625,7.88350772857666,5.219658851623535,-0.22266076505184174
1670350774240712700,5.805712646484375,8.503905296325684,5.121496677398682,-0.06464344263076782
1670350774250638000,5.81563818359375,9.306561470031738,5.025728702545166,-0.1173158809542656
1670350774260563200,5.825563232421875,9.67766284942627,4.968267917633057,-0.043095629662275314
1670350774270488600,5.835488525390625,9.488520622253418,5.049670696258545,0.038307227194309235
1670350774280414000,5.8454140625,8.685864448547363,5.143044471740723,-0.10295066982507706
1670350774290339300,5.85533935546875,8.161534309387207,5.32739782333374,-0.12689268589019775
1670350774300264400,5.865264404296875,7.950545310974121,5.5096564292907715,0.0933738648891449
1670350774310189800,5.87518994140625,7.8092875480651855,5.449801445007324,0.12449848651885986
1670350774320115200,5.885115234375,7.471405506134033,5.435436248779297,-0.009576806798577309
1670350774330040600,5.89504052734375,7.627327919006348,5.452195644378662,-0.15801730751991272
1670350774339965700,5.904965576171875,7.835623741149902,5.4210710525512695,-0.10773907601833344
1670350774349891000,5.91489111328125,8.043919563293457,5.329792022705078,-0.19393034279346466
1670350774359816400,5.92481640625,8.472780227661133,5.2771196365356445,-0.16998831927776337
1670350774369741800,5.934741943359375,7.730278968811035,5.368398666381836,-0.2777273952960968
1670350774379667000,5.9446669921875,7.861959934234619,5.219658851623535,-0.4240729808807373
1670350774389592300,5.95459228515625,8.731653213500977,5.1238908767700195,-0.20350714027881622
1670350774399517700,5.964517578125,9.694421768188477,5.095160484313965,0.047884032130241394
1670350774409443000,5.974443115234375,9.723152160644531,5.095160484313965,0.24660277366638184
1670350774419368200,5.9843681640625,8.829815864562988,5.114314079284668,0.07422025501728058
1670350774429293600,5.99429345703125,8.307580947875977,5.126285076141357,-0.3115454912185669
1670350774439219000,6.004218994140625,8.003217697143555,5.349245071411133,-0.011971008032560349
1670350774449144300,6.014144287109375,7.998429298400879,5.404311656951904,0.2322375625371933
1670350774459069700,6.024069580078125,8.055890083312988,5.286696434020996,0.10534487664699554
1670350774468994800,6.033994873046875,7.967304706573486,5.3348798751831055,-0.05267243832349777
1670350774478920200,6.043920166015625,8.218995094299316,5.380369663238525,-0.14844051003456116
1670350774488845600,6.053845458984375,8.386589050292969,5.305850028991699,-0.16519992053508759
1670350774498771000,6.06377099609375,8.661922454833984,5.2364182472229,-0.17477671802043915
1670350774508696000,6.073696044921875,7.778162956237793,5.404311656951904,-0.2828150689601898
1670350774518621400,6.083621337890625,7.71591329574585,5.313032627105713,-0.6012439131736755
1670350774528546800,6.093546875,7.859565734863281,5.267542839050293,-0.14365209639072418
1670350774538472200,6.10347216796875,8.36264705657959,5.138256072998047,-0.090979665517807
1670350774548397300,6.113397216796875,9.277831077575684,5.013757705688477,-0.17717093229293823
1670350774558322700,6.12332275390625,9.785401344299316,5.0161519050598145,0.035913024097681046
1670350774568248000,6.133248046875,9.486125946044922,5.11191987991333,0.19393034279346466
1670350774578173400,6.14317333984375,8.54460620880127,5.135861873626709,-0.019153613597154617
1670350774588098600,6.1530986328125,7.907449722290039,5.205293655395508,-0.16998831927776337
1670350774598024000,6.16302392578125,7.337330341339111,5.404311656951904,0.019153613597154617
1670350774607949300,6.17294921875,6.903680801391602,5.411494255065918,-0.05267243832349777
1670350774617874700,6.182874755859375,6.810306549072266,5.308244228363037,-0.19153612852096558
1670350774627799800,6.1927998046875,7.492953300476074,5.260360240936279,-0.41210195422172546
1670350774637725200,6.20272509765625,8.477568626403809,5.188534259796143,-0.5006874203681946
1670350774647650600,6.212650634765625,8.856152534484863,5.0784010887146,-0.34506431221961975
1670350774657576000,6.222575927734375,8.7484130859375,5.042488098144531,-0.15562310814857483
1670350774667501000,6.2325009765625,8.791508674621582,5.0376996994018555,-0.24181437492370605
1670350774677426400,6.242426513671875,8.983044624328613,5.076006889343262,-0.36421793699264526
1670350774687351800,6.252351806640625,9.328108787536621,5.133467674255371,-0.3618237376213074
1670350774697277200,6.262277099609375,9.888651847839355,5.047276496887207,-0.22266076505184174
1670350774707202300,6.272202392578125,10.087369918823242,4.9275665283203125,0.047884032130241394
1670350774717127700,6.282127685546875,9.426271438598633,5.008969306945801,0.06464344263076782
1670350774727053000,6.292052978515625,8.403348922729492,5.147832870483398,-0.16759411990642548
1670350774736978400,6.301978515625,7.735067367553711,5.193322658538818,-0.3283049166202545
1670350774746903600,6.311903564453125,7.665635108947754,5.226841449737549,-0.29718029499053955
1670350774756829000,6.321828857421875,7.873930931091309,5.214870452880859,-0.09576806426048279
1670350774766754300,6.33175439453125,7.9194207191467285,5.214870452880859,-0.047884032130241394
1670350774776679700,6.3416796875,8.276455879211426,5.238812446594238,-0.2106897532939911
1670350774786604800,6.351604736328125,8.87051773071289,5.195716857910156,-0.26336219906806946
1670350774796530200,6.3615302734375,9.119514465332031,5.224447250366211,-0.16519992053508759
1670350774806455600,6.37145556640625,8.815450668334961,5.2555718421936035,-0.2082955539226532
1670350774816381000,6.381380859375,8.50869369506836,5.1693806648254395,-0.4049193561077118
1670350774826306000,6.39130615234375,8.386589050292969,5.140650272369385,-0.3594295382499695
1670350774836231400,6.4012314453125,8.321946144104004,5.166986465454102,-0.22505496442317963
1670350774846156800,6.41115673828125,8.23814868927002,5.183745861053467,-0.20350714027881622
1670350774856082200,6.421082275390625,8.072649955749512,5.193322658538818,-0.21547815203666687
1670350774866007300,6.43100732421875,8.000823974609375,5.200505256652832,-0.14604631066322327
1670350774875932700,6.4409326171875,8.055890083312988,5.219658851623535,-0.090979665517807
1670350774885858000,6.450858154296875,8.048707962036133,5.24838924407959,-0.14604631066322327
1670350774895783400,6.460783447265625,7.981669902801514,5.28190803527832,-0.2106897532939911
1670350774905708500,6.47070849609375,7.9409685134887695,5.3348798751831055,-0.1628057211637497
1670350774915634000,6.480634033203125,7.993640899658203,5.315426826477051,-0.16998831927776337
1670350774925559300,6.490559326171875,8.055890083312988,5.296273231506348,-0.23942017555236816
1670350774935484700,6.500484619140625,8.046313285827637,5.317821025848389,-0.24420857429504395
1670350774945409800,6.510409912109375,8.199841499328613,5.310638427734375,-0.24660277366638184
1670350774955335200,6.520335205078125,8.63558578491211,5.224447250366211,-0.2753331959247589
1670350774965260500,6.530260498046875,8.999804496765137,5.159803867340088,-0.19632454216480255
1670350774975186000,6.54018603515625,8.987833023071289,5.181351661682129,-0.10534487664699554
1670350774985111000,6.550111083984375,8.7268648147583,5.200505256652832,-0.0933738648891449
1670350774995036400,6.560036376953125,8.338705062866211,5.200505256652832,-0.13168109953403473
1670350775004961800,6.5699619140625,8.077438354492188,5.224447250366211,-0.14844051003456116
1670350775014887200,6.57988720703125,7.8763251304626465,5.260360240936279,-0.13168109953403473
1670350775024812300,6.589812255859375,7.737461566925049,5.2771196365356445,-0.13407529890537262
1670350775034737700,6.599737548828125,7.840412139892578,5.269937038421631,-0.21547815203666687
1670350775044663000,6.6096630859375,8.250120162963867,5.265148639678955,-0.32112228870391846
1670350775054588400,6.61958837890625,8.87291145324707,5.231629848480225,-0.272938996553421
1670350775064513500,6.629513427734375,8.992621421813965,5.193322658538818,-0.14365209639072418
1670350775074439000,6.63943896484375,8.846575736999512,5.176563262939453,-0.20350714027881622
1670350775084364300,6.6493642578125,8.808267593383789,5.174169063568115,-0.26815059781074524
1670350775094289700,6.65928955078125,8.762778282165527,5.116708278656006,-0.18914192914962769
1670350775104214800,6.66921484375,7.775768756866455,5.531204700469971,-0.2059013396501541
1670350775114140200,6.67914013671875,7.409156322479248,5.305850028991699,-0.5222352743148804
1670350775124065500,6.6890654296875,8.463203430175781,5.133467674255371,-0.2298433631658554
1670350775133991000,6.698990966796875,8.626008987426758,5.183745861053467,-0.07661445438861847
1670350775143916000,6.708916015625,9.251194953918457,5.092766284942627,0.0071826050989329815
1670350775153841400,6.71884130859375,9.615413665771484,5.0807952880859375,-0.11252748221158981
1670350775163766800,6.728766845703125,9.893440246582031,5.217264652252197,-0.3809773325920105
1670350775173692200,6.738692138671875,9.715970039367676,5.310638427734375,-0.07661445438861847
1670350775183617300,6.7486171875,7.871536731719971,5.291484832763672,-0.15801730751991272
1670350775193542700,6.758542724609375,6.271312236785889,5.284302234649658,-0.6563105583190918
1670350775203468000,6.768468017578125,6.005555629730225,5.361216068267822,-0.634762704372406
1670350775213393400,6.778393310546875,6.587646007537842,5.382763862609863,-0.26096799969673157
1670350775223318500,6.788318603515625,7.337330341339111,5.354033470153809,-0.13407529890537262
1670350775233244000,6.798243896484375,7.905055522918701,5.250783443450928,-0.30196869373321533
1670350775243169300,6.808169189453125,8.537424087524414,5.210082054138184,-0.4743511974811554
1670350775253094700,6.8180947265625,9.05247688293457,5.2555718421936035,-0.41689038276672363
1670350775263019800,6.828019775390625,9.105149269104004,5.2364182472229,-0.272938996553421
1670350775272945200,6.837945068359375,8.959102630615234,5.064035892486572,-0.31872808933258057
1670350775282870500,6.84787060546875,8.844181060791016,4.94193172454834,-0.36421793699264526
1670350775292796000,6.8577958984375,8.712499618530273,4.963479518890381,-0.22026655077934265
1670350775302721000,6.867720947265625,8.482357025146484,4.41969633102417,0.5796960592269897
1670350775312646400,6.877646484375,8.173505783081055,4.060266971588135,1.2192472219467163
1670350775322571800,6.88757177734375,8.089408874511719,4.225766181945801,0.46238020062446594
1670350775332497200,6.8974970703125,8.115745544433594,4.707000732421875,0.3594295382499695
1670350775342422300,6.90742236328125,8.23575496673584,4.968267917633057,0.19393034279346466
1670350775352347600,6.91734765625,8.250120162963867,5.013757705688477,-0.22505496442317963
1670350775362273000,6.92727294921875,8.288427352905273,4.9060187339782715,-0.8239046335220337
1670350775372198400,6.937198486328125,8.262090682983398,5.071218490600586,-1.2096704244613647
1670350775382123500,6.94712353515625,8.264485359191895,5.392340660095215,-1.5092449188232422
1670350775392049000,6.957048828125,8.39377212524414,5.674856662750244,-1.6457144021987915
1670350775401974300,6.966974365234375,8.50869369506836,5.751471042633057,-1.6481086015701294
1670350775411899600,6.976899658203125,8.590096473693848,5.617395877838135,-1.6720505952835083
1670350775421824800,6.98682470703125,8.860940933227539,5.464166641235352,-1.7821838855743408
1670350775431750100,6.996750244140625,9.100360870361328,5.411494255065918,-1.7175405025482178
1670350775441675500,7.006675537109375,9.299378395080566,5.476137638092041,-1.7630302906036377
1670350775451601000,7.016600830078125,9.426271438598633,5.6221842765808105,-1.9258359670639038
1670350775461526000,7.026526123046875,9.222464561462402,5.624578475952148,-1.9740192890167236
1670350775471451400,7.036451416015625,7.979275703430176,5.303455829620361,-1.7127519845962524
1670350775481376800,7.046376708984375,7.67042350769043,4.994604110717773,-1.7606360912322998
1670350775491302100,7.05630224609375,7.790133953094482,4.8844709396362305,-1.4709376096725464
1670350775501227300,7.066227294921875,7.794922351837158,4.9275665283203125,-1.2168530225753784
1670350775511152600,7.076152587890625,8.043919563293457,4.9060187339782715,-1.4517840147018433
1670350775521078000,7.086078125,8.022371292114258,4.946720123291016,-1.5978304147720337
1670350775531003400,7.09600341796875,7.950545310974121,5.061641693115234,-1.578676700592041
1670350775540928500,7.105928466796875,8.070255279541016,5.147832870483398,-1.6744447946548462
1670350775550854000,7.11585400390625,8.307580947875977,5.279513835906982,-1.6672621965408325
1670350775560779300,7.125779296875,8.681076049804688,5.4426188468933105,-1.6074072122573853
1670350775570704600,7.13570458984375,8.877699851989746,5.581482887268066,-1.578676700592041
1670350775580629800,7.145629638671875,8.769960403442383,5.626972675323486,-1.6888099908828735
1670350775590555100,7.15555517578125,8.523058891296387,5.569511890411377,-1.7654244899749756
1670350775600480500,7.16548046875,8.403348922729492,5.406705856323242,-1.7462708950042725
1670350775610406000,7.175406005859375,8.259696960449219,5.231629848480225,-1.5954362154006958
1670350775620331000,7.1853310546875,7.984064102172852,5.064035892486572,-1.4398130178451538
1670350775630256400,7.19525634765625,7.842806339263916,5.054459095001221,-1.4661492109298706
1670350775640181800,7.205181640625,7.840412139892578,5.152621269226074,-1.6241666078567505
1670350775650107100,7.215107177734375,7.859565734863281,5.2771196365356445,-1.779789686203003
1670350775660032300,7.2250322265625,8.027159690856934,5.366004467010498,-1.9955670833587646
1670350775669957600,7.23495751953125,8.422502517700195,5.389946460723877,-2.146401882171631
1670350775679883000,7.244883056640625,8.661922454833984,5.28190803527832,-1.8875287771224976
1670350775689808400,7.254808349609375,8.899248123168945,5.126285076141357,-1.5978304147720337
1670350775699733500,7.2647333984375,8.858546257019043,5.090372085571289,-1.437418818473816
1670350775709659000,7.274658935546875,8.286032676696777,5.20289945602417,-1.4206594228744507
1670350775719584300,7.284584228515625,6.676231384277344,5.619790077209473,-1.8947113752365112
1670350775729509600,7.294509521484375,4.316745758056641,6.6594719886779785,-2.318784236907959
1670350775739435000,7.30443505859375,4.913201332092285,6.657077789306641,-3.267486810684204
1670350775749360000,7.314360107421875,8.156745910644531,6.0294976234436035,-2.2828712463378906
1670350775759285500,7.324285400390625,10.710162162780762,5.40910005569458,-1.3748703002929688
1670350775769211000,7.3342109375,11.320982933044434,5.320215225219727,-1.6289550065994263
1670350775779136300,7.34413623046875,11.002553939819336,5.526416301727295,-2.2230162620544434
1670350775789061400,7.354061279296875,10.197504043579102,5.928941249847412,-2.529773473739624
1670350775798986800,7.36398681640625,8.051101684570312,5.741894245147705,-2.345120668411255
1670350775808912100,7.373912109375,5.284302234649658,5.133467674255371,-2.0027496814727783
1670350775818837500,7.38383740234375,3.4829649925231934,4.63517427444458,-1.2144588232040405
1670350775828762600,7.3937626953125,3.3728315830230713,4.683058738708496,-0.4982932209968567
1670350775838688000,7.40368798828125,4.225766181945801,5.140650272369385,-0.400130957365036
1670350775848613400,7.41361328125,5.641337871551514,5.612607479095459,-0.943913996219635
1670350775858538800,7.423538818359375,7.217620372772217,5.81611442565918,-1.8899229764938354
1670350775868463900,7.4334638671875,8.592490196228027,5.792172431945801,-2.448071241378784
1670350775878389200,7.44338916015625,9.993996620178223,5.722740650177002,-2.3546974658966064
1670350775888314600,7.453314697265625,10.985794067382812,5.610213279724121,-2.1559786796569824
1670350775898240000,7.463239990234375,10.959458351135254,5.485714435577393,-1.8731635808944702
1670350775908165000,7.4731650390625,10.192715644836426,5.3348798751831055,-1.854009985923767
1670350775918090500,7.483090576171875,9.31853199005127,5.217264652252197,-2.1942858695983887
1670350775928016000,7.493015869140625,8.685864448547363,5.310638427734375,-2.1487960815429688
1670350775937941200,7.502941162109375,8.12053394317627,5.370792865753174,-1.698386788368225
1670350775947866400,7.512866455078125,7.617751121520996,5.274725437164307,-1.415871024131775
1670350775957791700,7.522791748046875,7.325359344482422,5.195716857910156,-1.303044319152832
1670350775967717000,7.532717041015625,7.205649375915527,5.217264652252197,-1.3365631103515625
1670350775977642500,7.542642578125,7.164947986602783,5.2986674308776855,-1.4182652235031128
1670350775987567600,7.552567626953125,7.320570945739746,5.428253650665283,-1.367687702178955
1670350775997493000,7.562492919921875,7.751826763153076,5.521627902984619,-1.3533225059509277
1670350776007418400,7.57241845703125,8.185476303100586,5.512050628662109,-1.3796586990356445
1670350776017343700,7.58234375,8.467991828918457,5.471349239349365,-1.3533225059509277
1670350776027268900,7.592268798828125,8.570942878723145,5.3995232582092285,-1.3988122940063477
1670350776037194200,7.6021943359375,8.556577682495117,5.401917457580566,-1.4757261276245117
1670350776047119600,7.61211962890625,8.511087417602539,5.45458984375,-1.5954362154006958
1670350776057045000,7.622044921875,8.39377212524414,5.507262229919434,-1.5906476974487305
1670350776066970000,7.63197021484375,8.12292766571045,5.464166641235352,-1.3940238952636719
1670350776076895500,7.6418955078125,7.770980358123779,5.433042049407959,-1.1857284307479858
1670350776086820900,7.65182080078125,7.538443088531494,5.428253650665283,-1.0708067417144775
1670350776096746200,7.661746337890625,7.488164901733398,5.389946460723877,-1.1139023303985596
1670350776106671400,7.67167138671875,7.644087314605713,5.337274074554443,-1.18094003200531
1670350776116596700,7.6815966796875,8.072649955749512,5.366004467010498,-1.2216414213180542
1670350776126522000,7.691522216796875,8.530241012573242,5.476137638092041,-1.18094003200531
1670350776136447500,7.701447509765625,8.753201484680176,5.502473831176758,-1.1426327228546143
1670350776146372600,7.71137255859375,8.734047889709473,5.45458984375,-1.1522095203399658
1670350776156298000,7.721298095703125,8.568548202514648,5.440224647521973,-1.2360066175460815
1670350776166223400,7.731223388671875,8.32912826538086,5.437830448150635,-1.14742112159729
1670350776176148700,7.741148681640625,8.017582893371582,5.3779754638671875,-0.9295487999916077
1670350776186073900,7.751073974609375,7.816470146179199,5.274725437164307,-0.8960300087928772
1670350776195999200,7.760999267578125,7.840412139892578,5.205293655395508,-0.9917980432510376
1670350776205924600,7.770924560546875,8.048707962036133,5.126285076141357,-1.0516531467437744
1670350776215850000,7.78085009765625,8.221389770507812,5.1454386711120605,-1.0420763492584229
1670350776225775000,7.790775146484375,8.36264705657959,5.289090633392334,-0.9247604012489319
1670350776235700500,7.800700439453125,8.570942878723145,5.32739782333374,-0.9080010056495667
1670350776245625900,7.8106259765625,8.757989883422852,5.37558126449585,-0.8286930918693542
1670350776255551200,7.82055126953125,8.623615264892578,5.310638427734375,-0.8239046335220337
1670350776265476400,7.830476318359375,8.391377449035645,5.1909284591674805,-0.8481459617614746
1670350776275401700,7.840401611328125,8.23575496673584,5.1238908767700195,-0.7688380479812622
1670350776285327000,7.8503271484375,8.245331764221191,5.0784010887146,-0.81672203540802
1670350776295252500,7.86025244140625,8.290821075439453,5.1693806648254395,-0.7999626398086548
1670350776305177600,7.870177490234375,8.300397872924805,5.289090633392334,-0.7616553902626038
1670350776315103000,7.88010302734375,8.324339866638184,5.3226094245910645,-0.7472901940345764
1670350776325028400,7.8900283203125,8.424896240234375,5.332186222076416,-0.7616553902626038
1670350776334953700,7.89995361328125,8.341099739074707,5.245995044708252,-0.8095394372940063
1670350776344878800,7.90987890625,8.372223854064941,5.257966041564941,-0.7161656022071838
1670350776354804200,7.91980419921875,8.39616584777832,5.243600845336914,-0.7496843934059143
1670350776364729600,7.9297294921875,8.456021308898926,5.2364182472229,-0.7233482003211975
1670350776374655000,7.939655029296875,8.436867713928223,5.231629848480225,-0.7401075959205627
1670350776384580000,7.949580078125,8.410531044006348,5.257966041564941,-0.8023568391799927
1670350776394505500,7.95950537109375,8.298004150390625,5.28190803527832,-0.7281365990638733
1670350776404430800,7.969430908203125,8.32673454284668,5.308244228363037,-0.6682815551757812
1670350776414356200,7.979356201171875,8.290821075439453,5.231629848480225,-0.6754641532897949
1670350776424281300,7.98928125,8.298004150390625,5.219658851623535,-0.6491279602050781
1670350776434206700,7.999206787109375,8.163928985595703,5.2124762535095215,-0.6395511031150818
1670350776444132000,8.009132080078125,8.118139266967773,5.219658851623535,-0.634762704372406
1670350776454057500,8.019057373046875,8.209418296813965,5.265148639678955,-0.5868787169456482
1670350776463982800,8.02898291015625,8.276455879211426,5.24838924407959,-0.5773018598556519
1670350776473908200,8.038908203125,8.324339866638184,5.229235649108887,-0.5725134611129761
1670350776483833600,8.04883349609375,8.336311340332031,5.210082054138184,-0.5557540655136108
1670350776493758700,8.0587587890625,8.489540100097656,5.224447250366211,-0.5054758191108704
1670350776503684000,8.06868408203125,8.614038467407227,5.210082054138184,-0.5509656667709351
1670350776513609500,8.078609375,8.604461669921875,5.186140060424805,-0.5078700184822083
1670350776523534800,8.088534912109376,8.463203430175781,5.147832870483398,-0.48632222414016724
1670350776533460200,8.098460205078124,8.379406929016113,5.147832870483398,-0.5150526165962219
1670350776543385600,8.108385498046875,8.333916664123535,5.193322658538818,-0.553359866142273
1670350776553311000,8.11831103515625,8.290821075439453,5.231629848480225,-0.6419453024864197
1670350776563236400,8.128236328125,8.266879081726074,5.195716857910156,-0.6970119476318359
1670350776573161700,8.13816162109375,8.283638954162598,5.1693806648254395,-0.6443395614624023
1670350776583087000,8.148087158203126,8.331522941589355,5.119102478027344,-0.6539163589477539
1670350776593012500,8.158012451171874,8.475174903869629,5.099948883056641,-0.6682815551757812
1670350776602937900,8.167937744140625,8.594884872436523,5.116708278656006,-0.6706757545471191
1670350776612863200,8.17786328125,8.7268648147583,5.135861873626709,-0.6275801062583923
1670350776622788600,8.18778857421875,8.657134056091309,5.11191987991333,-0.553359866142273
1670350776632714000,8.1977138671875,8.518270492553711,5.092766284942627,-0.5102642178535461
1670350776642639400,8.207639404296875,8.518270492553711,5.11191987991333,-0.5150526165962219
1670350776652564700,8.217564697265624,8.479963302612305,5.133467674255371,-0.5389946699142456
1670350776662490000,8.227489990234375,8.338705062866211,5.128679275512695,-0.5725134611129761
1670350776672415500,8.23741552734375,8.264485359191895,5.1238908767700195,-0.5366004705429077
1670350776682340900,8.2473408203125,8.286032676696777,5.164592266082764,-0.5318120718002319
1670350776692266200,8.257266357421875,8.350676536560059,5.183745861053467,-0.5461772680282593
1670350776702191600,8.267191650390625,8.424896240234375,5.181351661682129,-0.47913962602615356
1670350776712116700,8.27711669921875,8.50869369506836,5.171774864196777,-0.44322657585144043
1670350776722042000,8.2870419921875,8.513482093811035,5.131073474884033,-0.4719569981098175
1670350776731967500,8.296967529296875,8.446444511413574,5.0807952880859375,-0.4767454266548157
1670350776741892900,8.306892822265626,8.436867713928223,5.121496677398682,-0.5437830686569214
1670350776751818200,8.316818359375,8.432079315185547,5.087977886199951,-0.5054758191108704
1670350776761743600,8.32674365234375,8.283638954162598,5.076006889343262,-0.5150526165962219
1670350776771669000,8.3366689453125,8.298004150390625,5.135861873626709,-0.5629366636276245
1670350776781594400,8.346594482421875,8.266879081726074,5.133467674255371,-0.5773018598556519
1670350776791519700,8.356519775390625,8.278850555419922,5.121496677398682,-0.574907660484314
1670350776801445000,8.366445068359376,8.32912826538086,5.097554683685303,-0.5581482648849487
1670350776811370500,8.37637060546875,8.432079315185547,5.073612689971924,-0.529417872428894
1670350776821295900,8.3862958984375,8.503905296325684,5.028122901916504,-0.5174468159675598
1670350776831221000,8.396220947265626,8.582913398742676,5.028122901916504,-0.491110622882843
1670350776841146400,8.406146484375,8.702624320983887,5.056853294372559,-0.5198410153388977
1670350776851071700,8.41607177734375,8.736441612243652,5.052064895629883,-0.529417872428894
1670350776860997000,8.4259970703125,8.647557258605957,5.028122901916504,-0.512658417224884
1670350776870922200,8.435922119140624,8.467991828918457,5.052064895629883,-0.4982932209968567
1670350776880847600,8.44584765625,8.391377449035645,5.099948883056641,-0.574907660484314
1670350776890773000,8.45577294921875,8.39616584777832,5.109525680541992,-0.5892729163169861
1670350776900698400,8.465698486328124,8.503905296325684,5.047276496887207,-0.46238020062446594
1670350776910623500,8.47562353515625,8.563759803771973,4.994604110717773,-0.39534255862236023
1670350776920548900,8.485548828125,8.475174903869629,5.0807952880859375,-0.30196869373321533
1670350776930474200,8.49547412109375,8.448838233947754,5.181351661682129,-0.3043628931045532
1670350776940399600,8.505399658203125,8.434473037719727,5.164592266082764,-0.45759180188179016
1670350776950324700,8.51532470703125,8.39616584777832,5.049670696258545,-0.5701192617416382
1670350776960250000,8.52525,8.45123291015625,4.989815711975098,-0.5222352743148804
1670350776970175500,8.535175537109374,8.556577682495117,4.946720123291016,-0.5078700184822083
1670350776980100900,8.545100830078125,8.614038467407227,4.925172328948975,-0.48392802476882935
1670350776990026000,8.55502587890625,8.513482093811035,4.956296920776367,-0.512658417224884
1670350776999951400,8.564951416015624,8.489540100097656,5.02094030380249,-0.5557540655136108
1670350777009876700,8.574876708984375,8.499116897583008,5.109525680541992,-0.5054758191108704
1670350777019802000,8.584802001953125,8.563759803771973,5.095160484313965,-0.46477439999580383
1670350777029727200,8.594727294921874,8.54221248626709,5.090372085571289,-0.4671685993671417
1670350777039652600,8.604652587890625,8.48714542388916,5.107131481170654,-0.45759180188179016
1670350777049578000,8.614577880859375,8.523058891296387,5.104737281799316,-0.4264671802520752
1670350777059503400,8.62450341796875,8.470386505126953,5.0807952880859375,-0.400130957365036
1670350777069428500,8.634428466796875,8.379406929016113,5.03291130065918,-0.4671685993671417
1670350777079353900,8.644353759765625,8.26927375793457,5.042488098144531,-0.5174468159675598
1670350777089279200,8.654279296875,8.307580947875977,5.054459095001221,-0.45998600125312805
1670350777099204600,8.66420458984375,8.372223854064941,5.085583686828613,-0.4767454266548157
1670350777109129700,8.674129638671875,8.477568626403809,5.147832870483398,-0.4719569981098175
1670350777119055000,8.68405517578125,8.578125,5.092766284942627,-0.4767454266548157
1670350777128980500,8.69398046875,8.513482093811035,5.035305500030518,-0.4240729808807373
1670350777138905900,8.70390576171875,8.523058891296387,5.006575107574463,-0.3618237376213074
1670350777148831000,8.7138310546875,8.580519676208496,4.994604110717773,-0.400130957365036
1670350777158756400,8.72375634765625,8.570942878723145,5.040093898773193,-0.4192845821380615
1670350777168681700,8.733681640625,8.556577682495117,5.044882297515869,-0.4982932209968567
1670350777178607000,8.743607177734376,8.506299018859863,5.068824291229248,-0.4767454266548157
1670350777188532200,8.7535322265625,8.48475170135498,5.097554683685303,-0.4719569981098175
1670350777198457600,8.76345751953125,8.45362663269043,5.1023430824279785,-0.4743511974811554
1670350777208383000,8.773383056640625,8.39377212524414,5.068824291229248,-0.4216787815093994
1670350777218308400,8.783308349609374,8.379406929016113,5.044882297515869,-0.4097077548503876
1670350777228233500,8.7932333984375,8.386589050292969,5.013757705688477,-0.4192845821380615
1670350777238158800,8.803158935546875,8.350676536560059,5.023334503173828,-0.4743511974811554
1670350777248084200,8.813084228515624,8.456021308898926,5.085583686828613,-0.4767454266548157
1670350777258009600,8.823009521484375,8.652345657348633,5.104737281799316,-0.4767454266548157
1670350777267934700,8.832934814453125,8.808267593383789,5.03291130065918,-0.5030816197395325
1670350777277860000,8.842860107421876,8.743624687194824,4.97545051574707,-0.5653308629989624
1670350777287785500,8.852785400390625,8.614038467407227,5.052064895629883,-0.5270236730575562
1670350777297710800,8.8627109375,8.513482093811035,5.0784010887146,-0.4528034031391144
1670350777307636000,8.872635986328126,8.309974670410156,5.044882297515869,-0.4073135554790497
1670350777317561300,8.882561279296874,8.127716064453125,5.092766284942627,-0.34745851159095764
1670350777327486700,8.89248681640625,8.070255279541016,5.090372085571289,-0.4049193561077118
1670350777337412000,8.902412109375,7.979275703430176,5.087977886199951,-0.38576576113700867
1670350777347337200,8.912337158203124,8.118139266967773,5.116708278656006,-0.3594295382499695
1670350777357262600,8.9222626953125,8.710105895996094,5.042488098144531,-0.15562310814857483
1670350777367188000,8.93218798828125,8.185476303100586,5.119102478027344,-0.36661213636398315
1670350777377113300,8.94211328125,8.796297073364258,5.159803867340088,-1.1857284307479858
1670350777387038500,8.95203857421875,9.17697525024414,5.006575107574463,-0.7664438486099243
1670350777396963800,8.9619638671875,9.3735990524292,4.961085319519043,-0.4456208050251007
1670350777406889200,8.97188916015625,9.081207275390625,5.044882297515869,-0.38815996050834656
1670350777416814600,8.981814697265625,8.489540100097656,5.061641693115234,-0.26336219906806946
1670350777426740000,8.991739990234375,7.780557155609131,4.934749126434326,-0.4097077548503876
1670350777436665300,9.001665283203126,7.5312604904174805,5.092766284942627,-0.48632222414016724
1670350777446590700,9.0115908203125,7.730278968811035,5.308244228363037,-0.3977367579936981
1670350777456516000,9.02151611328125,8.09898567199707,5.243600845336914,-0.34027591347694397
1670350777466441500,9.03144140625,8.400954246520996,5.150227069854736,-0.3139396905899048
1670350777476366800,9.041366943359375,8.71489429473877,5.159803867340088,-0.4073135554790497
1670350777486292200,9.051292236328125,8.956708908081055,5.0784010887146,-0.5413888692855835
1670350777496217600,9.061217529296876,8.951920509338379,4.98742151260376,-0.5796960592269897
1670350777506143000,9.07114306640625,8.803479194641113,4.961085319519043,-0.5820902585983276
1670350777516068000,9.081068115234375,8.585308074951172,4.98742151260376,-0.48153382539749146
1670350777525993500,9.090993408203126,8.372223854064941,5.004180908203125,-0.48153382539749146
1670350777535918800,9.1009189453125,8.12292766571045,4.994604110717773,-0.5413888692855835
1670350777545844200,9.11084423828125,7.938574314117432,4.996998310089111,-0.46477439999580383
1670350777555769600,9.12076953125,7.998429298400879,5.044882297515869,-0.3618237376213074
1670350777565695000,9.130695068359374,8.257302284240723,5.116708278656006,-0.36421793699264526
1670350777575620400,9.140620361328125,8.621220588684082,5.126285076141357,-0.45519760251045227
1670350777585545700,9.150545654296875,8.880094528198242,5.107131481170654,-0.4671685993671417
1670350777595471000,9.16047119140625,8.951920509338379,5.1454386711120605,-0.36900633573532104
1670350777605396500,9.170396484375,8.947132110595703,5.174169063568115,-0.36900633573532104
1670350777615321900,9.18032177734375,8.803479194641113,5.140650272369385,-0.45998600125312805
1670350777625247200,9.190247314453124,8.530241012573242,5.076006889343262,-0.529417872428894
1670350777635172600,9.200172607421875,8.21420669555664,5.040093898773193,-0.48632222414016724
1670350777645098000,9.210097900390625,7.924209117889404,5.061641693115234,-0.44322657585144043
1670350777655023400,9.2200234375,7.770980358123779,5.15740966796875,-0.3977367579936981
1670350777664948700,9.22994873046875,7.512106895446777,5.061641693115234,-0.6084265112876892
1670350777674874000,9.2398740234375,7.562385559082031,5.001786708831787,-0.7377133965492249
1670350777684799500,9.249799560546874,7.955333709716797,5.243600845336914,-0.5701192617416382
1670350777694724900,9.259724853515625,8.54460620880127,5.238812446594238,-0.5150526165962219
1670350777704650200,9.269650146484375,8.803479194641113,5.0784010887146,-0.4887164235115051
1670350777714575600,9.27957568359375,8.846575736999512,4.901230335235596,-0.6395511031150818
1670350777724501000,9.2895009765625,8.734047889709473,4.752490520477295,-0.7784148454666138
1670350777734426000,9.299426025390625,8.60925006866455,4.666299343109131,-0.756866991519928
1670350777744351500,9.3093515625,8.657134056091309,4.656722068786621,-0.7425017952919006
1670350777754276900,9.31927685546875,8.66431713104248,4.759673118591309,-0.7018003463745117
1670350777764202200,9.3292021484375,8.652345657348633,4.8629231452941895,-0.5557540655136108
1670350777774127600,9.339127685546876,8.436867713928223,5.02094030380249,-0.4480150043964386
1670350777784053000,9.349052978515624,8.456021308898926,5.135861873626709,-0.2828150689601898
1670350777793978400,9.358978271484375,8.841787338256836,5.253177642822266,0.1628057211637497
1670350777803903700,9.36890380859375,9.359233856201172,5.329792022705078,0.7879916429519653
1670350777813829000,9.3788291015625,9.232041358947754,5.217264652252197,0.8864531517028809
1670350777823754500,9.38875439453125,8.252513885498047,5.147832870483398,0.2059013396501541
1670350777833680000,9.398679931640626,7.9409685134887695,5.1454386711120605,0.047884032130241394
1670350777843605200,9.408605224609374,8.139687538146973,5.1238908767700195,0.3043628931045532
1670350777853530600,9.418530517578125,8.264485359191895,5.1909284591674805,0.4456208050251007
1670350777863456000,9.4284560546875,8.343493461608887,5.222053050994873,0.3522469103336334
1670350777873381400,9.43838134765625,8.321946144104004,5.2771196365356445,0.30196869373321533
1670350777883306800,9.448306640625,8.26927375793457,5.2986674308776855,0.29718029499053955
1670350777893232000,9.458232177734375,8.168717384338379,5.253177642822266,0.26096799969673157
1670350777903157200,9.4681572265625,8.295609474182129,5.320215225219727,0.4073135554790497
1670350777913082600,9.47808251953125,8.218995094299316,5.349245071411133,0.3330933153629303
1670350777923008000,9.488008056640625,8.283638954162598,5.32739782333374,0.3378817141056061
1670350777932933400,9.497933349609376,8.283638954162598,5.291484832763672,0.34745851159095764
1670350777942858500,9.5078583984375,8.286032676696777,5.162198066711426,0.2537853717803955
1670350777952784000,9.517783935546875,8.185476303100586,5.099948883056641,0.21547815203666687
1670350777962709200,9.527709228515626,8.017582893371582,5.131073474884033,0.21787235140800476
1670350777972634600,9.537634521484375,7.902661323547363,5.222053050994873,0.2298433631658554
1670350777982559700,9.547559814453125,8.077438354492188,5.29387903213501,0.3139396905899048
1670350777992485000,9.557485107421876,8.527847290039062,5.272331237792969,0.4097077548503876
1670350778002410500,9.567410400390624,8.96389102935791,5.219658851623535,0.43604397773742676
1670350778012335900,9.5773359375,9.224859237670898,5.181351661682129,0.4743511974811554
1670350778022261000,9.587260986328126,9.347262382507324,5.155015468597412,0.5150526165962219
1670350778032186400,9.597186279296874,9.062053680419922,5.085583686828613,0.5246294736862183
1670350778042111700,9.60711181640625,8.618826866149902,5.0376996994018555,0.6371569037437439
1670350778052037000,9.617037109375,8.166322708129883,4.985027313232422,0.7041945457458496
1670350778061962200,9.626962158203124,8.03194808959961,5.018546104431152,0.7065888047218323
1670350778071887600,9.6368876953125,8.242937088012695,5.114314079284668,0.7257423996925354
1670350778081813000,9.64681298828125,8.118139266967773,5.279513835906982,0.7185598015785217
1670350778091738400,9.65673828125,8.087015151977539,5.320215225219727,0.5964555144309998
1670350778101663500,9.66666357421875,8.276455879211426,5.171774864196777,0.5509656667709351
1670350778111588900,9.6765888671875,8.441656112670898,5.186140060424805,0.4719569981098175
1670350778121514200,9.68651416015625,8.50869369506836,5.301061630249023,0.3115454912185669
1670350778131439600,9.696439697265625,8.793902397155762,5.346850872039795,0.41210195422172546
1670350778141364700,9.70636474609375,8.81784439086914,5.29387903213501,0.7329249978065491
1670350778151290000,9.7162900390625,8.743624687194824,5.183745861053467,0.884058952331543
1670350778161215500,9.726215576171874,8.518270492553711,5.200505256652832,0.8071452379226685
1670350778171140900,9.736140869140625,8.046313285827637,5.186140060424805,0.4192845821380615
1670350778181066000,9.74606591796875,7.869142532348633,5.128679275512695,0.004788403399288654
1670350778190991400,9.755991455078124,7.9744873046875,5.133467674255371,-0.06224924325942993
1670350778200916700,9.765916748046875,7.969698905944824,5.265148639678955,0.16998831927776337
1670350778210842000,9.775842041015625,8.027159690856934,5.351639270782471,0.3546411395072937
1670350778220767200,9.785767333984374,8.151957511901855,5.315426826477051,0.5677250623703003
1670350778230692600,9.795692626953125,8.317157745361328,5.262754440307617,0.795174241065979
1670350778240618000,9.805617919921875,8.683470726013184,5.186140060424805,0.8912416100502014
1670350778250543400,9.81554345703125,8.80587387084961,5.193322658538818,0.7425017952919006
1670350778260468500,9.825468505859375,8.791508674621582,5.178957462310791,0.5868787169456482
1670350778270393900,9.835393798828125,8.743624687194824,5.135861873626709,0.6826467514038086
1670350778280319200,9.8453193359375,8.475174903869629,5.210082054138184,0.8505401611328125
1670350778290244600,9.85524462890625,8.137292861938477,5.413888454437256,0.7616553902626038
1670350778300169700,9.865169677734375,7.938574314117432,5.574300289154053,0.5940613150596619
1670350778310095000,9.87509521484375,7.9194207191467285,5.607819080352783,0.5222352743148804
1670350778320020500,9.8850205078125,8.094197273254395,5.459378242492676,0.4767454266548157
1670350778329945900,9.89494580078125,8.36264705657959,5.181351661682129,0.3115454912185669
1670350778339871200,9.904871337890626,8.60925006866455,4.860528945922852,0.07182604819536209
1670350778349796600,9.914796630859374,8.880094528198242,4.63517427444458,-0.14844051003456116
1670350778359722000,9.924721923828125,8.980650901794434,4.599261283874512,-0.2513911724090576
1670350778369647400,9.9346474609375,9.08838939666748,4.616020679473877,-0.2537853717803955
1670350778379572700,9.94457275390625,9.083600997924805,4.6734819412231445,-0.2753331959247589
1670350778389498000,9.954498046875,8.939949035644531,4.745307922363281,-0.272938996553421
1670350778399423500,9.964423583984376,8.803479194641113,4.860528945922852,-0.14604631066322327
1670350778409348900,9.974348876953124,8.661922454833984,4.980238914489746,-0.047884032130241394
1670350778419274200,9.984274169921875,8.712499618530273,4.985027313232422,-0.023942016065120697
1670350778429199600,9.99419970703125,8.786720275878906,4.853346347808838,-0.1149216815829277
1670350778439125000,10.004125,8.755595207214355,4.750096321105957,-0.24181437492370605
1670350778449050400,10.01405029296875,8.637980461120605,4.757278919219971,-0.41689038276672363
1670350778458975500,10.0239755859375,8.499116897583008,4.771644115447998,-0.5150526165962219
1670350778468900900,10.03390087890625,8.336311340332031,4.726154327392578,-0.5270236730575562
1670350778478826200,10.043826171875,8.283638954162598,4.654327869415283,-0.4958990216255188
1670350778488751600,10.053751708984375,8.355464935302734,4.616020679473877,-0.4887164235115051
1670350778498677000,10.063677001953126,8.412925720214844,4.687847137451172,-0.5054758191108704
1670350778508602400,10.073602294921875,8.558971405029297,4.788702487945557,-0.3618237376213074
1670350778518527700,10.08352783203125,8.772355079650879,4.867711544036865,-0.14604631066322327
1670350778528453000,10.093453125,8.834604263305664,5.001786708831787,-0.11013327538967133
1670350778538378500,10.10337841796875,8.676287651062012,5.044882297515869,-0.1364694982767105
1670350778548304000,10.113303955078125,8.621220588684082,5.023334503173828,-0.08619125932455063
1670350778558229200,10.123229248046876,8.525452613830566,4.989815711975098,-0.14844051003456116
1670350778568154600,10.133154541015625,8.458415031433105,4.97545051574707,-0.13168109953403473
1670350778578080000,10.143080078125,8.400954246520996,5.0807952880859375,-0.08858546614646912
1670350778588005400,10.15300537109375,8.171111106872559,5.104737281799316,-0.13168109953403473
1670350778597930800,10.1629306640625,8.113350868225098,5.097554683685303,-0.1628057211637497
1670350778607856000,10.172856201171875,8.233360290527344,5.028122901916504,-0.27054479718208313
1670350778617781500,10.182781494140626,8.223783493041992,5.044882297515869,-0.19871874153614044
1670350778627707000,10.192706787109374,8.288427352905273,5.087977886199951,-0.13168109953403473
1670350778637632300,10.20263232421875,8.42968463897705,5.097554683685303,-0.10295066982507706
1670350778647557600,10.2125576171875,8.614038467407227,5.128679275512695,-0.0694318488240242
1670350778657483000,10.22248291015625,8.743624687194824,5.073612689971924,-0.13407529890537262
1670350778667408400,10.232408447265625,8.693047523498535,4.953902721405029,-0.24420857429504395
1670350778677333500,10.24233349609375,8.561366081237793,4.917989730834961,-0.2322375625371933
1670350778687259000,10.2522587890625,8.408137321472168,4.985027313232422,-0.16998831927776337
1670350778697184300,10.262184326171875,8.336311340332031,5.092766284942627,0.019153613597154617
1670350778707109600,10.272109619140625,8.321946144104004,5.114314079284668,0.002394201699644327
1670350778717035000,10.282034912109374,8.350676536560059,5.071218490600586,-0.0933738648891449
1670350778726960400,10.29196044921875,8.448838233947754,5.095160484313965,-0.15322890877723694
1670350778736885800,10.3018857421875,8.501510620117188,5.097554683685303,-0.24420857429504395
1670350778746811100,10.31181103515625,8.52066421508789,5.0807952880859375,-0.2322375625371933
1670350778756736500,10.321736572265625,8.683470726013184,5.052064895629883,-0.10534487664699554
1670350778766662000,10.331661865234375,8.846575736999512,5.0161519050598145,-0.08858546614646912
1670350778776587300,10.341587158203126,8.832210540771484,4.977844715118408,-0.2346317619085312
1670350778786512600,10.3515126953125,8.697835922241211,5.030517101287842,-0.17238251864910126
1670350778796438000,10.36143798828125,8.446444511413574,5.076006889343262,-0.1412578970193863
1670350778806363400,10.37136328125,8.199841499328613,5.092766284942627,-0.12928688526153564
1670350778816288800,10.381288818359375,8.12292766571045,5.128679275512695,-0.16759411990642548
1670350778826214100,10.391214111328125,8.139687538146973,5.181351661682129,-0.09576806426048279
1670350778836139500,10.401139404296876,8.192659378051758,5.162198066711426,-0.014365210197865963
1670350778846065000,10.41106494140625,8.283638954162598,5.164592266082764,-0.031124621629714966
1670350778855990300,10.420990234375,8.377012252807617,5.207687854766846,-0.038307227194309235
1670350778865915600,10.43091552734375,8.374618530273438,5.183745861053467,-0.033518824726343155
1670350778875841000,10.440841064453124,8.460809707641602,5.131073474884033,-0.07182604819536209
1670350778885766400,10.450766357421875,8.647557258605957,5.071218490600586,-0.15801730751991272
1670350778895691800,10.46069189453125,8.779537200927734,5.035305500030518,-0.1628057211637497
1670350778905617000,10.470616943359374,8.825027465820312,5.0592474937438965,-0.06224924325942993
1670350778915542300,10.480542236328125,8.863334655761719,5.073612689971924,-0.026336219161748886
1670350778925467600,10.490467529296875,8.70022964477539,5.083189487457275,-0.019153613597154617
1670350778935393000,10.50039306640625,8.499116897583008,5.119102478027344,-0.11013327538967133
1670350778945318400,10.510318359375,8.209418296813965,5.1909284591674805,-0.0933738648891449
1670350778955243800,10.520243896484375,7.9194207191467285,5.286696434020996,-0.12689268589019775
1670350778965169200,10.530169189453124,7.622539520263672,5.337274074554443,-0.10773907601833344
1670350778975094500,10.540094482421875,7.620145320892334,5.342062473297119,-0.18914192914962769
1670350778985020000,10.55002001953125,7.861959934234619,5.32739782333374,-0.21308395266532898
1670350778994945300,10.5599453125,8.204629898071289,5.272331237792969,-0.2106897532939911
1670350779004870700,10.56987060546875,8.424896240234375,5.28190803527832,-0.15083470940589905
1670350779014796000,10.579796142578125,8.530241012573242,5.257966041564941,-0.12210428714752197
1670350779024721400,10.589721435546876,8.71728801727295,5.131073474884033,-0.07900865375995636
1670350779034646800,10.599646728515625,8.844181060791016,4.9491143226623535,-0.08858546614646912
1670350779044572200,10.609572265625,8.920795440673828,4.92996072769165,-0.0933738648891449
1670350779054497300,10.619497314453126,8.908824920654297,5.006575107574463,-0.07182604819536209
1670350779064422700,10.629422607421875,8.71489429473877,5.071218490600586,-0.12449848651885986
1670350779074348000,10.63934814453125,8.281244277954102,5.107131481170654,-0.17477671802043915
1670350779084273400,10.6492734375,7.6752119064331055,5.219658851623535,-0.22744916379451752
1670350779094198500,10.659198486328124,7.263110160827637,5.301061630249023,-0.3570353388786316
1670350779104124000,10.6691240234375,7.231985569000244,5.289090633392334,-0.3546411395072937
1670350779114049300,10.67904931640625,7.672817707061768,5.229235649108887,-0.3761889338493347
1670350779123974700,10.688974609375,8.539817810058594,5.147832870483398,-0.39294835925102234
1670350779133899800,10.698899658203125,9.464578628540039,5.095160484313965,-0.1604115068912506
1670350779143825200,10.7088251953125,9.82640266418457,5.109525680541992,0.15801730751991272
1670350779153750500,10.71875048828125,9.816526412963867,5.023334503173828,-0.009576806798577309
1670350779163676000,10.728676025390625,9.775824546813965,4.73573112487793,-0.34506431221961975
1670350779173601000,10.73860107421875,9.603442192077637,4.6734819412231445,-0.19871874153614044
1670350779183526400,10.7485263671875,9.270648002624512,4.80785608291626,0.014365210197865963
1670350779193451800,10.75845166015625,8.710105895996094,4.956296920776367,-0.038307227194309235
1670350779203377200,10.768377197265625,8.118139266967773,5.040093898773193,-0.20350714027881622
1670350779213302300,10.77830224609375,7.84998893737793,5.116708278656006,-0.26096799969673157
1670350779223227600,10.7882275390625,7.720701694488525,5.257966041564941,-0.13168109953403473
1670350779233153000,10.798153076171875,7.576750755310059,5.368398666381836,-0.1173158809542656
1670350779243078400,10.808078369140626,7.469011306762695,5.492897033691406,-0.1628057211637497
1670350779253003500,10.81800341796875,7.473799705505371,5.471349239349365,-0.29957449436187744
1670350779262929000,10.827928955078125,7.706336498260498,5.40910005569458,-0.41689038276672363
1670350779272854300,10.837854248046876,8.21420669555664,5.380369663238525,-0.29239189624786377
1670350779282779600,10.847779541015624,8.61164379119873,5.257966041564941,-0.26815059781074524
1670350779292704800,10.857704833984375,8.573336601257324,5.188534259796143,-0.4192845821380615
1670350779302630100,10.867630126953125,8.444049835205078,5.226841449737549,-0.3546411395072937
1670350779312555500,10.877555419921874,8.377012252807617,5.24838924407959,-0.29718029499053955
1670350779322481000,10.88748095703125,8.29321575164795,5.224447250366211,-0.3330933153629303
1670350779332406000,10.897406005859375,8.216601371765137,5.198111057281494,-0.3067570924758911
1670350779342331400,10.907331298828124,8.23814868927002,5.186140060424805,-0.29718029499053955
1670350779352256800,10.9172568359375,8.23814868927002,5.174169063568115,-0.32112228870391846
1670350779362182100,10.92718212890625,8.32673454284668,5.188534259796143,-0.2585737705230713
1670350779372107500,10.937107421875,8.321946144104004,5.198111057281494,-0.17477671802043915
1670350779382033000,10.947032958984375,8.14956283569336,5.339668273925781,-0.21787235140800476
1670350779391958300,10.956958251953125,8.535029411315918,5.262754440307617,-0.31872808933258057
1670350779401883600,10.966883544921876,9.011775016784668,5.171774864196777,-0.22266076505184174
1670350779411809000,10.97680908203125,9.059659004211426,5.178957462310791,-0.2059013396501541
1670350779421734400,10.986734375,8.841787338256836,5.1454386711120605,-0.44322657585144043
1670350779431659800,10.99665966796875,8.496722221374512,5.085583686828613,-0.41689038276672363
1670350779441585200,11.006585205078125,8.439261436462402,5.044882297515869,-0.4288613796234131
1670350779451510500,11.016510498046875,8.436867713928223,5.023334503173828,-0.2777273952960968
1670350779461435600,11.026435546875,8.20223617553711,5.044882297515869,-0.26815059781074524
1670350779471361000,11.036361083984374,7.907449722290039,5.076006889343262,-0.32112228870391846
1670350779481286400,11.046286376953125,7.7230963706970215,5.162198066711426,-0.32351651787757874
1670350779491211800,11.056211669921876,7.8547773361206055,5.243600845336914,-0.4097077548503876
1670350779501137200,11.06613720703125,8.374618530273438,5.222053050994873,-0.3833715617656708
1670350779511062500,11.0760625,9.01895809173584,5.150227069854736,-0.3618237376213074
1670350779520988000,11.08598779296875,9.217676162719727,5.1454386711120605,-0.32112228870391846
1670350779530913300,11.095913330078124,8.83699893951416,5.164592266082764,-0.29957449436187744
1670350779540838700,11.105838623046875,8.621220588684082,5.243600845336914,-0.4982932209968567
1670350779550764000,11.115763916015625,8.66671085357666,5.1454386711120605,-0.5318120718002319
1670350779560689400,11.125689453125,8.274062156677246,5.138256072998047,-0.44322657585144043
1670350779570614800,11.13561474609375,8.091803550720215,5.310638427734375,-0.17717093229293823
1670350779580540200,11.1455400390625,8.405742645263672,5.171774864196777,-0.31872808933258057
1670350779590465500,11.155465576171874,8.338705062866211,5.205293655395508,-0.3833715617656708
1670350779600391000,11.165390869140625,8.070255279541016,5.226841449737549,-0.39055415987968445
1670350779610316300,11.17531640625,7.945756912231445,5.29387903213501,-0.2777273952960968
1670350779620241700,11.18524169921875,7.739855766296387,5.397129058837891,-0.24420857429504395
1670350779630167000,11.1951669921875,7.605780124664307,5.346850872039795,-0.3570353388786316
1670350779640092400,11.205092529296875,8.043919563293457,5.183745861053467,-0.5366004705429077
1670350779650017800,11.215017822265626,8.80587387084961,5.054459095001221,-0.39534255862236023
1670350779659943200,11.224943115234375,9.172186851501465,5.155015468597412,-0.15322890877723694
1670350779669868500,11.23486865234375,9.0859956741333,5.272331237792969,-0.1604115068912506
1670350779679793700,11.244793701171876,8.66431713104248,5.272331237792969,-0.1364694982767105
1670350779689719000,11.254718994140624,8.762778282165527,5.207687854766846,-0.0071826050989329815
1670350779699644400,11.26464453125,8.343493461608887,5.20289945602417,-0.6539163589477539
1670350779709569800,11.27456982421875,8.573336601257324,5.210082054138184,-0.9630676507949829
1670350779719495200,11.2844951171875,8.983044624328613,5.135861873626709,-0.5078700184822083
1670350779729420500,11.294420654296875,9.0859956741333,5.054459095001221,-0.24899697303771973
1670350779739346000,11.304345947265626,8.676287651062012,5.0161519050598145,-0.1412578970193863
1670350779749271300,11.314271240234374,8.053496360778809,5.097554683685303,-0.08140286058187485
1670350779759196700,11.32419677734375,7.543231964111328,5.181351661682129,-0.12928688526153564
1670350779769122000,11.3341220703125,7.500135898590088,5.20289945602417,-0.12928688526153564
1670350779779047400,11.34404736328125,7.873930931091309,5.1238908767700195,-0.22744916379451752
1670350779788972800,11.353972900390625,8.317157745361328,5.104737281799316,-0.22744916379451752
1670350779798898200,11.363898193359375,8.815450668334961,5.241206645965576,-0.22744916379451752
1670350779808823600,11.373823486328124,8.971074104309082,5.305850028991699,-0.400130957365036
1670350779818749000,11.3837490234375,8.527847290039062,5.32739782333374,-0.4671685993671417
1670350779828674300,11.39367431640625,8.130110740661621,5.342062473297119,-0.5557540655136108
1670350779838599700,11.403599609375,7.988852500915527,5.406705856323242,-0.4743511974811554
1670350779848525000,11.413525146484375,7.905055522918701,5.401917457580566,-0.5773018598556519
1670350779858450400,11.423450439453125,7.852383136749268,5.476137638092041,-0.4743511974811554
1670350779868375800,11.433375732421876,7.926603317260742,5.512050628662109,-0.4456208050251007
1670350779878301200,11.44330126953125,7.871536731719971,5.447407245635986,-0.4073135554790497
1670350779888226600,11.4532265625,8.022371292114258,5.361216068267822,-0.4480150043964386
1670350779898152000,11.46315185546875,8.230966567993164,5.339668273925781,-0.4456208050251007
1670350779908077000,11.4730771484375,8.398560523986816,5.3779754638671875,-0.4049193561077118
1670350779918002400,11.48300244140625,9.522039413452148,5.461772441864014,-0.1364694982767105
1670350779927927800,11.492927734375,8.233360290527344,5.461772441864014,-0.07661445438861847
1670350779937853200,11.502853271484375,8.101380348205566,5.176563262939453,-0.7496843934059143
1670350779947778600,11.512778564453125,8.444049835205078,5.205293655395508,-0.5006874203681946
1670350779957704000,11.522703857421876,8.66671085357666,5.32739782333374,-0.08858546614646912
1670350779967629300,11.53262939453125,8.441656112670898,5.337274074554443,-0.23942017555236816
1670350779977554700,11.5425546875,8.374618530273438,5.181351661682129,-0.3761889338493347
1670350779987480000,11.55247998046875,8.702624320983887,5.147832870483398,-0.09816227108240128
1670350779997405400,11.562405517578124,8.918401718139648,5.1238908767700195,-0.026336219161748886
1670350780007330800,11.572330810546875,8.410531044006348,5.159803867340088,-0.23942017555236816
1670350780017256200,11.582256103515626,7.823652744293213,5.257966041564941,-0.3283049166202545
1670350780027181600,11.592181640625,7.617751121520996,5.32739782333374,-0.26815059781074524
1670350780037107000,11.60210693359375,7.720701694488525,5.382763862609863,-0.26575639843940735
1670350780047032300,11.6120322265625,7.988852500915527,5.449801445007324,-0.2322375625371933
1670350780056957700,11.621957763671874,8.226178169250488,5.531204700469971,-0.24899697303771973
1670350780066883000,11.631883056640625,8.379406929016113,5.545569896697998,-0.309151291847229
1670350780076808400,11.641808349609375,8.312369346618652,5.540781497955322,-0.2513911724090576
1670350780086733800,11.65173388671875,7.981669902801514,5.591059684753418,-0.2298433631658554
1670350780096659200,11.6616591796875,7.682394504547119,5.55514669418335,-0.26575639843940735
1670350780106584600,11.67158447265625,7.75900936126709,5.459378242492676,-0.2852092683315277
1670350780116510000,11.681510009765624,8.324339866638184,5.245995044708252,-0.2585737705230713
1670350780126435000,11.69143505859375,8.618826866149902,5.178957462310791,-0.1843535304069519
1670350780136360400,11.7013603515625,8.475174903869629,5.289090633392334,-0.14604631066322327
1670350780146285800,11.711285888671876,8.350676536560059,5.329792022705078,-0.19153612852096558
1670350780156211200,11.721211181640625,8.199841499328613,5.3779754638671875,-0.014365210197865963
1670350780166136600,11.731136474609375,8.082226753234863,5.418676853179932,-0.3522469103336334
1670350780176062000,11.74106201171875,8.513482093811035,5.2124762535095215,-0.4935048222541809
1670350780185987300,11.7509873046875,8.827422142028809,5.013757705688477,-0.3115454912185669
1670350780195912700,11.76091259765625,8.904036521911621,5.207687854766846,-0.2777273952960968
1670350780205838000,11.770838134765626,8.882488250732422,5.279513835906982,-0.2828150689601898
1670350780215763500,11.780763427734374,8.630797386169434,5.150227069854736,-0.23702596127986908
1670350780225688800,11.790688720703125,8.036736488342285,5.245995044708252,-0.06224924325942993
1670350780235614200,11.8006142578125,7.457040309906006,5.495291233062744,0.016759412363171577
1670350780245539600,11.81053955078125,7.227197170257568,5.6006364822387695,-0.05985504388809204
1670350780255465000,11.82046484375,7.23677396774292,5.571906089782715,-0.13407529890537262
1670350780265390300,11.830390380859376,7.459434509277344,5.521627902984619,-0.19153612852096558
1670350780275315700,11.840315673828124,7.713519096374512,5.502473831176758,-0.26336219906806946
1670350780285241000,11.850240966796875,8.427290916442871,5.28190803527832,-0.48153382539749146
1670350780295166500,11.86016650390625,9.452607154846191,4.92996072769165,-0.6203975081443787
1670350780305091800,11.870091796875,9.835979461669922,4.819827079772949,-0.3570353388786316
1670350780315017200,11.880017333984375,9.534010887145996,4.913201332092285,-0.16519992053508759
1670350780324942600,11.889942626953125,8.904036521911621,5.0807952880859375,-0.15801730751991272
1670350780334868000,11.899867919921874,8.312369346618652,5.2364182472229,-0.26815059781074524
1670350780344793000,11.90979296875,8.166322708129883,5.272331237792969,-0.34027591347694397
1670350780354718500,11.919718505859375,7.9864583015441895,5.313032627105713,-0.08858546614646912
1670350780364643800,11.929643798828126,8.000823974609375,5.296273231506348,-0.040701430290937424
1670350780374569200,11.9395693359375,8.61164379119873,5.346850872039795,-0.12689268589019775
1670350780384494600,11.94949462890625,8.621220588684082,5.3995232582092285,-0.038307227194309235
1670350780394420000,11.959419921875,8.582913398742676,5.29387903213501,-0.15083470940589905
1670350780404345300,11.969345458984375,8.647557258605957,5.250783443450928,-0.29478609561920166
1670350780414270700,11.979270751953125,8.841787338256836,5.257966041564941,-0.23942017555236816
1670350780424196000,11.989196044921876,8.992621421813965,5.155015468597412,-0.07182604819536209
1670350780434121500,11.99912158203125,8.865729331970215,5.104737281799316,-0.10055647045373917
1670350780444046800,12.009046875,8.551789283752441,5.116708278656006,-0.2899976670742035
1670350780453972200,12.01897216796875,8.103774070739746,5.1454386711120605,-0.45519760251045227
1670350780463897600,12.028897705078125,7.8547773361206055,5.186140060424805,-0.5222352743148804
1670350780473823000,12.038822998046875,7.907449722290039,5.229235649108887,-0.48632222414016724
1670350780483748400,12.048748291015626,8.024765968322754,5.313032627105713,-0.29239189624786377
1670350780493673700,12.058673828125,7.952939510345459,5.387552261352539,-0.13168109953403473
1670350780503599000,12.06859912109375,7.936180114746094,5.404311656951904,-0.13168109953403473
1670350780513524500,12.0785244140625,8.125322341918945,5.406705856323242,-0.12449848651885986
1670350780523449900,12.088449951171874,8.36264705657959,5.344456672668457,-0.2106897532939911
1670350780533375200,12.098375244140625,9.17697525024414,5.296273231506348,-0.1388636976480484
1670350780543300600,12.108300537109375,8.66431713104248,5.72513484954834,0.3522469103336334
1670350780553226000,12.11822607421875,8.091803550720215,5.629366874694824,-0.5557540655136108
1670350780563151400,12.1281513671875,7.567173957824707,5.291484832763672,-0.4767454266548157
1670350780573076500,12.138076416015625,7.814075946807861,5.147832870483398,-0.32351651787757874
1670350780583001900,12.148001953125,7.7446441650390625,5.28190803527832,-0.32351651787757874
1670350780592927200,12.15792724609375,7.641693115234375,5.339668273925781,-0.37140053510665894
1670350780602852600,12.1678525390625,7.945756912231445,5.320215225219727,-0.27054479718208313
1670350780612778000,12.177778076171874,8.321946144104004,5.392340660095215,0.05985504388809204
1670350780622703400,12.187703369140625,9.167398452758789,5.262754440307617,0.23942017555236816
1670350780632628700,12.197628662109375,9.538799285888672,5.217264652252197,0.3043628931045532
1670350780642554000,12.20755419921875,8.815450668334961,5.413888454437256,0.17956513166427612
1670350780652479500,12.2174794921875,7.988852500915527,5.449801445007324,0.0454898327589035
1670350780662404900,12.22740478515625,7.773374557495117,5.305850028991699,-0.1628057211637497
1670350780672330200,12.237330322265626,7.84998893737793,5.245995044708252,-0.29478609561920166
1670350780682255600,12.247255615234375,7.933785915374756,5.229235649108887,-0.3977367579936981
1670350780692181000,12.257180908203125,7.960122108459473,5.272331237792969,-0.4216787815093994
1670350780702106400,12.2671064453125,8.221389770507812,5.269937038421631,-0.45998600125312805
1670350780712031700,12.27703173828125,8.561366081237793,5.178957462310791,-0.36421793699264526
1670350780721957000,12.28695703125,8.48714542388916,5.152621269226074,-0.309151291847229
1670350780731882500,12.296882568359376,8.422502517700195,5.1909284591674805,-0.45519760251045227
1670350780741807900,12.306807861328124,8.503905296325684,5.238812446594238,-0.29957449436187744
1670350780751733200,12.316733154296875,8.7268648147583,5.229235649108887,-0.13168109953403473
1670350780761658600,12.32665869140625,8.880094528198242,5.183745861053467,-0.090979665517807
1670350780771584000,12.336583984375,8.673893928527832,5.186140060424805,-0.15322890877723694
1670350780781509400,12.34650927734375,8.515875816345215,5.20289945602417,-0.16759411990642548
1670350780791434500,12.3564345703125,8.539817810058594,5.20289945602417,-0.031124621629714966
1670350780801360000,12.36635986328125,8.467991828918457,5.217264652252197,-0.040701430290937424
1670350780811285200,12.37628515625,8.195053100585938,5.342062473297119,-0.08619125932455063
1670350780821210600,12.386210693359375,8.091803550720215,5.411494255065918,-0.05506663769483566
1670350780831136000,12.396135986328124,8.118139266967773,5.428253650665283,-0.016759412363171577
1670350780841061400,12.406061279296875,8.197447776794434,5.4210710525512695,-0.08858546614646912
1670350780850986800,12.41598681640625,8.319551467895508,5.349245071411133,-0.10534487664699554
1670350780860912000,12.425912109375,8.405742645263672,5.308244228363037,-0.05746084079146385
1670350780870837500,12.43583740234375,8.317157745361328,5.301061630249023,-0.10055647045373917
1670350780880763000,12.445762939453125,8.247725486755371,5.303455829620361,-0.17477671802043915
1670350780890688300,12.455688232421876,8.350676536560059,5.200505256652832,-0.15801730751991272
1670350780900613600,12.465613525390625,8.54221248626709,5.099948883056641,-0.1843535304069519
1670350780910539000,12.4755390625,8.530241012573242,5.183745861053467,-0.19393034279346466
1670350780920464400,12.48546435546875,8.39616584777832,5.284302234649658,-0.19632454216480255
1670350780930389800,12.4953896484375,8.338705062866211,5.284302234649658,-0.2585737705230713
1670350780940315100,12.505315185546875,8.307580947875977,5.274725437164307,-0.3115454912185669
1670350780950240500,12.515240478515626,8.197447776794434,5.320215225219727,-0.2753331959247589
1670350780960166000,12.525165771484374,8.012794494628906,5.413888454437256,-0.2059013396501541
1670350780970091300,12.53509130859375,7.9409685134887695,5.430647850036621,-0.16998831927776337
1670350780980016600,12.5450166015625,8.003217697143555,5.404311656951904,-0.2082955539226532
1670350780989942000,12.55494189453125,8.142380714416504,5.3779754638671875,-0.21547815203666687
1670350780999867400,12.564867431640625,8.374618530273438,5.308244228363037,-0.22026655077934265
1670350781009792800,12.574792724609376,8.52066421508789,5.289090633392334,-0.2082955539226532
1670350781019718000,12.5847177734375,8.592490196228027,5.308244228363037,-0.21308395266532898
1670350781029643300,12.594643310546875,8.48714542388916,5.284302234649658,-0.1628057211637497
1670350781039568600,12.604568603515625,8.3027925491333,5.214870452880859,-0.15801730751991272
1670350781049494000,12.614493896484374,8.101380348205566,5.15740966796875,-0.17956513166427612
1670350781059419400,12.62441943359375,7.88350772857666,5.198111057281494,-0.32112228870391846
1670350781069344800,12.6343447265625,7.694365501403809,5.229235649108887,-0.43843817710876465
1670350781079270100,12.644270263671874,7.61296272277832,5.205293655395508,-0.45519760251045227
1670350781089195500,12.654195556640625,7.646481513977051,5.147832870483398,-0.5892729163169861
1670350781099121000,12.664120849609375,7.668029308319092,5.135861873626709,-0.6563105583190918
1670350781109046300,12.67404638671875,7.694365501403809,5.155015468597412,-0.6012439131736755
1670350781118971600,12.6839716796875,7.981669902801514,5.095160484313965,-0.5078700184822083
1670350781128897000,12.69389697265625,8.563759803771973,4.9491143226623535,-0.5054758191108704
1670350781138822400,12.703822509765626,9.114726066589355,4.8629231452941895,-0.41210195422172546
1670350781148747800,12.713747802734375,9.438241958618164,4.889259338378906,-0.2537853717803955
1670350781158673200,12.723673095703125,9.682451248168945,4.937143325805664,-0.24181437492370605
1670350781168598500,12.7335986328125,9.699210166931152,4.848557949066162,-0.36900633573532104
1670350781178524000,12.74352392578125,9.263166427612305,4.80785608291626,-0.32112228870391846
1670350781188449300,12.75344921875,8.738836288452148,4.891653537750244,-0.32112228870391846
1670350781198374700,12.763374755859376,8.374618530273438,5.023334503173828,-0.36661213636398315
1670350781208300000,12.773300048828125,8.209418296813965,4.788702487945557,-0.5461772680282593
1670350781218225400,12.783225341796875,8.103774070739746,4.803067684173584,-0.5581482648849487
1670350781228150800,12.79315087890625,8.250120162963867,4.865317344665527,-0.5964555144309998
1670350781238076000,12.803075927734374,8.602066993713379,4.867711544036865,-0.651522159576416
1670350781248001300,12.813001220703125,8.954314231872559,4.819827079772949,-0.7233482003211975
1670350781257926700,12.8229267578125,9.167398452758789,4.858134746551514,-0.795174241065979
1670350781267852000,12.83285205078125,9.313743591308594,4.870105743408203,-0.6108207106590271
1670350781277777400,12.84277734375,9.344868659973145,4.618414878845215,-0.3354875147342682
1670350781287702800,12.852702880859376,9.095572471618652,4.364629745483398,-0.1843535304069519
1670350781297628200,12.862628173828124,8.676287651062012,4.307168960571289,-0.15801730751991272
1670350781307553500,12.872553466796875,8.348281860351562,4.355052947998047,-0.3809773325920105
1670350781317479000,12.88247900390625,8.295609474182129,4.496310710906982,-0.8696937561035156
1670350781327404300,12.892404296875,8.257302284240723,4.8509521484375,-1.3605051040649414
1670350781337329700,12.90232958984375,8.211812973022461,5.107131481170654,-1.6720505952835083
1670350781347255000,12.912255126953125,8.252513885498047,5.205293655395508,-1.7702128887176514
1670350781357180400,12.922180419921874,8.386589050292969,5.152621269226074,-1.4110826253890991
1670350781367105800,12.932105712890625,8.561366081237793,5.061641693115234,-1.30543851852417
1670350781377031200,12.94203125,8.671499252319336,4.9706621170043945,-1.3102269172668457
1670350781386956500,12.95195654296875,8.796297073364258,4.956296920776367,-1.3581109046936035
1670350781396882000,12.9618818359375,8.702624320983887,5.02094030380249,-1.5858592987060547
1670350781406807300,12.971807373046875,8.499116897583008,5.164592266082764,-1.856404185295105
1670350781416732700,12.981732666015626,8.39616584777832,5.159803867340088,-1.9402011632919312
1670350781426658000,12.991657958984375,8.434473037719727,5.171774864196777,-1.9955670833587646
1670350781436583400,13.00158349609375,8.45123291015625,5.217264652252197,-2.0003554821014404
1670350781446508800,13.0115087890625,8.446444511413574,5.143044471740723,-1.6624737977981567
1670350781456434200,13.02143408203125,8.436867713928223,4.944325923919678,-1.2527660131454468
1670350781466359300,13.031359375,8.295609474182129,4.7910966873168945,-1.2288240194320679
1670350781476284700,13.04128466796875,8.247725486755371,4.894047737121582,-1.3605051040649414
1670350781486210000,13.0512099609375,8.156745910644531,5.135861873626709,-1.3317747116088867
1670350781496135400,13.061135498046875,6.884527206420898,5.241206645965576,-1.758241891860962
1670350781506060800,13.071060791015626,6.103717803955078,5.729923248291016,-2.316390037536621
1670350781515986200,13.080986083984374,7.9409685134887695,5.727529048919678,-2.572869062423706
1670350781525911600,13.09091162109375,10.087369918823242,5.591059684753418,-1.8085200786590576
1670350781535837000,13.1008369140625,11.249156951904297,5.2986674308776855,-1.51163911819458
1670350781545762300,13.11076220703125,10.868179321289062,5.0592474937438965,-1.533186912536621
1670350781555687700,13.120687744140625,9.58668327331543,4.8365864753723145,-1.7462708950042725
1670350781565613000,13.130613037109375,8.436867713928223,4.7405195236206055,-1.8372504711151123
1670350781575538400,13.140538330078124,7.385214328765869,4.661510944366455,-1.4541782140731812
1670350781585463800,13.1504638671875,6.2306108474731445,4.6040496826171875,-0.8864531517028809
1670350781595389200,13.16038916015625,5.423465251922607,4.6734819412231445,-0.7472901940345764
1670350781605314600,13.170314453125,5.461772441864014,4.815038681030273,-1.0492589473724365
1670350781615240000,13.180239990234375,6.304831027984619,5.0376996994018555,-1.3940238952636719
1670350781625165300,13.190165283203125,7.694365501403809,5.222053050994873,-1.7031751871109009
1670350781635090700,13.200090576171876,9.02135181427002,5.2364182472229,-1.7726070880889893
1670350781645016000,13.21001611328125,9.88625717163086,5.195716857910156,-1.5714941024780273
1670350781654941400,13.21994140625,10.197504043579102,5.162198066711426,-1.4613608121871948
